time,seconds_elapsed,z,y,x
1728303244625598500,0.029598388671875,-0.98248291015625,0.055145263671875,0.0089874267578125
1728303244635658500,0.039658447265625,-0.98248291015625,0.0325927734375,0.020660400390625
1728303244645718500,0.049718505859375,-0.95379638671875,0.0370941162109375,0.0165252685546875
1728303244655778600,0.059778564453125,-1.0044097900390625,0.0293121337890625,-0.003875732421875
1728303244665838600,0.069838623046875,-0.948883056640625,0.0339202880859375,0.012054443359375
1728303244675898600,0.079898681640625,-0.9564666748046875,0.0447540283203125,0.011566162109375
1728303244685958700,0.089958740234375,-1.028289794921875,0.0288238525390625,0.00518798828125
1728303244696018400,0.100018310546875,-1.0024566650390625,0.0175323486328125,0.010162353515625
1728303244706078500,0.110078369140625,-0.959564208984375,0.054229736328125,0.0177001953125
1728303244716138500,0.120138427734375,-1.0455322265625,0.032135009765625,0.0243988037109375
1728303244726198500,0.130198486328125,-1.0059814453125,0.034759521484375,0.032928466796875
1728303244736258600,0.140258544921875,-1.025726318359375,0.0517730712890625,0.0282135009765625
1728303244746318600,0.150318603515625,-1.059112548828125,0.01531982421875,0.0380706787109375
1728303244756378600,0.160378662109375,-1.00994873046875,0.0218048095703125,0.0448150634765625
1728303244766438400,0.1704384765625,-1.0022125244140625,0.0285797119140625,0.023040771484375
1728303244776498400,0.18049853515625,-1.0423126220703125,0.0321044921875,0.033172607421875
1728303244786558700,0.190558837890625,-0.989044189453125,0.015350341796875,0.0143585205078125
1728303244796618500,0.200618408203125,-1.01739501953125,0.030303955078125,0.019012451171875
1728303244806678500,0.210678466796875,-1.0172271728515625,0.0185089111328125,-0.0087738037109375
1728303244816738600,0.220738525390625,-0.987548828125,0.0184478759765625,0.0131378173828125
1728303244826798300,0.23079833984375,-1.006927490234375,0.011322021484375,-0.00469970703125
1728303244836858600,0.240858642578125,-1.0271148681640625,0.0137939453125,-0.010345458984375
1728303244846918700,0.250918701171875,-0.9549713134765625,0.0104217529296875,-0.0010223388671875
1728303244856978700,0.260978759765625,-0.99090576171875,0.015472412109375,-0.016815185546875
1728303244867038500,0.27103857421875,-1.0055694580078125,0.000640869140625,-0.01318359375
1728303244877098500,0.281098388671875,-0.975830078125,0.015899658203125,-0.00030517578125
1728303244887158500,0.291158447265625,-1.0034332275390625,0.0126495361328125,-0.0167694091796875
1728303244897218600,0.301218505859375,-0.9604034423828125,-0.0194091796875,-0.015350341796875
1728303244907278600,0.311278564453125,-0.9444732666015625,0.0254364013671875,-0.0106201171875
1728303244917338600,0.321338623046875,-1.0215606689453125,0.015716552734375,-0.00335693359375
1728303244927398400,0.3313984375,-0.9871978759765625,-0.008209228515625,-0.00439453125
1728303244937458400,0.34145849609375,-0.9501495361328125,0.0196533203125,0.0078582763671875
1728303244947518500,0.3515185546875,-0.970855712890625,0.036590576171875,-0.0175018310546875
1728303244957578800,0.361578857421875,-0.9691162109375,0.08453369140625,-0.0114898681640625
1728303244967638500,0.371638427734375,-0.9303131103515625,0.13958740234375,-0.019500732421875
1728303244977698600,0.381698486328125,-0.9455108642578125,0.1585693359375,-0.0420989990234375
1728303244987757600,0.391757568359375,-1.0594024658203125,0.1195831298828125,-0.0266876220703125
1728303244997817600,0.401817626953125,-1.23089599609375,-0.1785736083984375,0.1024322509765625
1728303245007877600,0.411877685546875,-0.896331787109375,-0.1512603759765625,0.1185455322265625
1728303245017937700,0.421937744140625,-0.999298095703125,-0.10308837890625,0.088134765625
1728303245027997400,0.43199755859375,-0.9901885986328125,0.0502471923828125,0.000823974609375
1728303245038057500,0.442057373046875,-1.0601348876953125,0.015899658203125,0.0399169921875
1728303245048117800,0.45211767578125,-0.9976806640625,0.0126800537109375,0.028289794921875
1728303245058177500,0.462177490234375,-1.01416015625,0.0251312255859375,0.0214996337890625
1728303245068237600,0.472237548828125,-1.0889892578125,0.0294952392578125,0.027862548828125
1728303245078297600,0.482297607421875,-0.9846343994140625,0.0000152587890625,0.0301361083984375
1728303245088357400,0.492357421875,-0.9724273681640625,0.0314178466796875,0.0289154052734375
1728303245098417400,0.50241748046875,-1.0420989990234375,0.0058746337890625,0.0125579833984375
1728303245108477700,0.512477783203125,-0.997589111328125,0.0072021484375,0.031463623046875
1728303245118537700,0.522537841796875,-0.9969024658203125,0.014739990234375,0.0317535400390625
1728303245128597500,0.532597412109375,-0.9939422607421875,-0.0013885498046875,0.0207366943359375
1728303245138657500,0.542657470703125,-0.9606781005859375,0.0084686279296875,0.0204620361328125
1728303245148717600,0.552717529296875,-0.9947662353515625,0.01190185546875,0.019378662109375
1728303245158777600,0.562777587890625,-1.026458740234375,0.0049591064453125,0.0247955322265625
1728303245168837600,0.572837646484375,-0.9270782470703125,0.0079193115234375,0.0035552978515625
1728303245178897700,0.582897705078125,-0.95159912109375,0.003326416015625,0.0034027099609375
1728303245188957400,0.59295751953125,-0.9932403564453125,-0.0117645263671875,-0.0134124755859375
1728303245199017500,0.603017578125,-0.950347900390625,-0.004150390625,-0.01397705078125
1728303245209077500,0.613077392578125,-0.96142578125,0.011077880859375,-0.01214599609375
1728303245219137500,0.623137451171875,-0.9630279541015625,-0.0218048095703125,-0.039337158203125
1728303245229197600,0.633197509765625,-0.9026947021484375,0.0007171630859375,-0.0359649658203125
1728303245239257600,0.643257568359375,-0.9925994873046875,0.01300048828125,-0.0298614501953125
1728303245249317600,0.653317626953125,-1.017303466796875,-0.01055908203125,-0.025543212890625
1728303245259377400,0.66337744140625,-0.8997802734375,-0.00689697265625,-0.036834716796875
1728303245269437400,0.6734375,-0.9558868408203125,0.02880859375,-0.0248260498046875
1728303245279497700,0.683497802734375,-1.019775390625,-0.0157012939453125,-0.034698486328125
1728303245289557500,0.6935576171875,-0.975921630859375,0.004180908203125,-0.002227783203125
1728303245299617500,0.703617431640625,-0.990966796875,0.0237884521484375,-0.0109405517578125
1728303245309677600,0.713677490234375,-0.991729736328125,-0.010589599609375,-0.034210205078125
1728303245319737300,0.7237373046875,-0.9872283935546875,0.0085906982421875,0.0070953369140625
1728303245329797600,0.733797607421875,-1.0149993896484375,0.0223236083984375,0.0003204345703125
1728303245339857700,0.743857666015625,-1.0603179931640625,0.005279541015625,-0.00830078125
1728303245349917700,0.753917724609375,-0.991943359375,0.0094757080078125,0.007843017578125
1728303245359977500,0.7639775390625,-1.0085296630859375,0.0218963623046875,0.010406494140625
1728303245370037500,0.77403759765625,-1.0536956787109375,0.0028076171875,0.01214599609375
1728303245380097500,0.78409765625,-1.0069732666015625,-0.0037078857421875,0.0240478515625
1728303245390157600,0.794157470703125,-1.044281005859375,0.0052032470703125,0.022216796875
1728303245400217600,0.804217529296875,-1.006134033203125,-0.0030517578125,0.0182647705078125
1728303245410277600,0.814277587890625,-0.964752197265625,0.0012969970703125,0.017547607421875
1728303245420337400,0.82433740234375,-1.0098114013671875,-0.01220703125,0.0101165771484375
1728303245430397400,0.8343974609375,-1.0036468505859375,-0.0095672607421875,0.01214599609375
1728303245440457500,0.84445751953125,-0.931427001953125,0.0001678466796875,0.0097198486328125
1728303245450517800,0.854517822265625,-0.9729156494140625,-0.008148193359375,0.0039215087890625
1728303245460577500,0.86457763671875,-0.9968109130859375,-0.0189056396484375,0.007781982421875
1728303245470638000,0.87463818359375,-0.9145660400390625,-0.00927734375,-0.0040435791015625
1728303245480697000,0.884697021484375,-0.9951019287109375,-0.002899169921875,-0.0055084228515625
1728303245490757000,0.894757080078125,-0.957733154296875,-0.0088653564453125,0.0027008056640625
1728303245500817200,0.904817138671875,-0.91937255859375,0.0014190673828125,-0.0026397705078125
1728303245510877200,0.914877197265625,-0.9806060791015625,-0.0055999755859375,-0.0270233154296875
1728303245520937200,0.924937255859375,-1.0197296142578125,-0.012725830078125,-0.0116424560546875
1728303245530997000,0.9349970703125,-0.9243316650390625,0.007568359375,0.0083465576171875
1728303245541057000,0.94505712890625,-0.9806365966796875,0.009246826171875,-0.0069732666015625
1728303245551117000,0.955116943359375,-0.999908447265625,-0.0099029541015625,-0.010772705078125
1728303245561177000,0.965177001953125,-0.962371826171875,0.002349853515625,0.0111083984375
1728303245571237000,0.975237060546875,-1.034576416015625,0.0146942138671875,0.022857666015625
1728303245581297200,0.985297119140625,-1.011871337890625,-0.0070648193359375,0.0160369873046875
1728303245591357200,0.995357177734375,-0.928985595703125,0.008087158203125,0.0210113525390625
1728303245601417000,1.0054169921875,-0.9940338134765625,0.00946044921875,0.0075531005859375
1728303245611477200,1.015477294921875,-1.02508544921875,-0.0045928955078125,0.0109405517578125
1728303245621537300,1.025537353515625,-0.97967529296875,-0.0084075927734375,0.0251617431640625
1728303245631597000,1.03559716796875,-1.0047607421875,0.008880615234375,0.004608154296875
1728303245641657000,1.045656982421875,-1.0129547119140625,-0.00213623046875,0.00408935546875
1728303245651717000,1.055717041015625,-0.958526611328125,-0.00347900390625,0.0172882080078125
1728303245661777000,1.06577685546875,-0.9871063232421875,-0.002532958984375,0.0010223388671875
1728303245671837200,1.075837158203125,-1.0053253173828125,-0.0016021728515625,-0.0002593994140625
1728303245681897200,1.085897216796875,-0.9627685546875,0.002960205078125,-0.0004119873046875
1728303245691957200,1.095957275390625,-1.0120086669921875,-0.0105133056640625,-0.008575439453125
1728303245702017000,1.10601708984375,-0.9983673095703125,-0.0118408203125,-0.006805419921875
1728303245712077000,1.1160771484375,-0.9253997802734375,0.0059814453125,-0.0109710693359375
1728303245722137000,1.12613720703125,-1.0080718994140625,-0.0025634765625,-0.011199951171875
1728303245732197000,1.136197021484375,-0.9854583740234375,-0.0203857421875,-0.01959228515625
1728303245742257200,1.146257080078125,-0.913055419921875,0.00653076171875,-0.0071258544921875
1728303245752317200,1.156317138671875,-0.999908447265625,-0.0037689208984375,-0.0158843994140625
1728303245762377000,1.166376953125,-1.0289459228515625,-0.0054931640625,-0.0015716552734375
1728303245772437000,1.17643701171875,-0.9351806640625,-0.0016937255859375,0.002532958984375
1728303245782497300,1.186497314453125,-0.9996490478515625,0.0083770751953125,-0.011077880859375
1728303245792557300,1.196557373046875,-0.98388671875,-0.0040130615234375,0.00311279296875
1728303245802617000,1.2066171875,-0.9421539306640625,0.00006103515625,0.0083465576171875
1728303245812677000,1.216677001953125,-1.035919189453125,-0.0113525390625,0.0070648193359375
1728303245822737200,1.226737060546875,-0.9878692626953125,-0.0070037841796875,0.002349853515625
1728303245832797000,1.236796875,-0.94189453125,0.008758544921875,0.011932373046875
1728303245842857200,1.246857177734375,-1.0084686279296875,-0.00933837890625,0.01556396484375
1728303245852917200,1.256917236328125,-0.9821624755859375,-0.005096435546875,0.016357421875
1728303245862977000,1.26697705078125,-0.9575653076171875,0.0091400146484375,0.0188751220703125
1728303245873037000,1.277037109375,-1.0172882080078125,0.0022125244140625,0.017669677734375
1728303245883097000,1.28709716796875,-0.977386474609375,0.0054931640625,0.0307769775390625
1728303245893157000,1.2971572265625,-0.9465484619140625,0.016021728515625,0.030059814453125
1728303245903217200,1.307217041015625,-1.028106689453125,-0.002593994140625,0.027801513671875
1728303245913277200,1.317277099609375,-0.981048583984375,-0.0001373291015625,0.022674560546875
1728303245923337200,1.327337158203125,-0.9682769775390625,0.020294189453125,0.0343780517578125
1728303245933397000,1.33739697265625,-1.016143798828125,0.00946044921875,0.030609130859375
1728303245943457000,1.34745703125,-0.9884185791015625,0.004486083984375,0.01934814453125
1728303245953517300,1.357517333984375,-0.9854278564453125,0.0332794189453125,0.020294189453125
1728303245963577000,1.3675771484375,-1.0353851318359375,0.011016845703125,0.019561767578125
1728303245973637000,1.37763720703125,-0.978271484375,0.0080718994140625,0.0210113525390625
1728303245983697200,1.387697265625,-0.9928741455078125,0.0189361572265625,0.0056610107421875
1728303245993757200,1.397757080078125,-1.0504150390625,0.0233306884765625,0.0163726806640625
1728303246003817000,1.40781689453125,-0.999908447265625,0.0055999755859375,0.0192718505859375
1728303246013877200,1.417877197265625,-0.964691162109375,0.005126953125,-0.0060882568359375
1728303246023937300,1.427937255859375,-1.0272674560546875,0.0180816650390625,0.002777099609375
1728303246033997000,1.4379970703125,-1.0149078369140625,0.016815185546875,0.0146026611328125
1728303246044057000,1.44805712890625,-0.988525390625,0.009735107421875,-0.005096435546875
1728303246054117000,1.4581171875,-1.0276031494140625,0.018310546875,-0.0108795166015625
1728303246064177200,1.46817724609375,-0.9728240966796875,0.0303497314453125,0.007415771484375
1728303246074237200,1.4782373046875,-1.007171630859375,0.0149383544921875,-0.004425048828125
1728303246084297200,1.488297119140625,-1.0219268798828125,0.0118560791015625,0.001312255859375
1728303246094357000,1.49835693359375,-0.9810638427734375,0.0384674072265625,0.0076446533203125
1728303246104417000,1.5084169921875,-1.01043701171875,0.0238189697265625,0.0037384033203125
1728303246114477000,1.51847705078125,-1.019317626953125,0.0040130615234375,-0.0122833251953125
1728303246124537300,1.528537353515625,-0.9956817626953125,0.035919189453125,0.007293701171875
1728303246134597000,1.53859716796875,-1.006988525390625,0.0337677001953125,0.0065155029296875
1728303246144657200,1.5486572265625,-1.012176513671875,0.0106353759765625,-0.010284423828125
1728303246154717200,1.55871728515625,-0.9875335693359375,0.037017822265625,0.0058135986328125
1728303246164777000,1.56877685546875,-1.0074310302734375,0.0417327880859375,-0.0084228515625
1728303246174837000,1.5788369140625,-1.0371246337890625,0.033935546875,0.0030670166015625
1728303246184897300,1.588897216796875,-0.9671630859375,0.035430908203125,0.0086669921875
1728303246194957000,1.59895703125,-1.02197265625,0.0528717041015625,0.0060577392578125
1728303246205017000,1.60901708984375,-1.0391998291015625,0.0319671630859375,-0.001220703125
1728303246215077000,1.6190771484375,-0.976898193359375,0.0406646728515625,0.0098419189453125
1728303246225137200,1.62913720703125,-1.0098876953125,0.049896240234375,0.0097198486328125
1728303246235197200,1.639197265625,-1.0454559326171875,0.036376953125,-0.00323486328125
1728303246245257200,1.64925732421875,-0.9650115966796875,0.035980224609375,0.009979248046875
1728303246255317200,1.659317138671875,-1.00006103515625,0.045440673828125,-0.001800537109375
1728303246265377000,1.669376953125,-1.0413818359375,0.0365753173828125,0.0004730224609375
1728303246275437000,1.67943701171875,-0.953887939453125,0.0325164794921875,0.0041961669921875
1728303246285497000,1.6894970703125,-0.9392242431640625,0.0379486083984375,-0.0102996826171875
1728303246295557000,1.69955712890625,-1.0224761962890625,0.030029296875,-0.003814697265625
1728303246305617200,1.7096171875,-0.9410858154296875,0.0264434814453125,0.0087127685546875
1728303246315677200,1.71967724609375,-0.9448394775390625,0.042633056640625,-0.00457763671875
1728303246325737200,1.7297373046875,-1.0230865478515625,0.018951416015625,-0.0133056640625
1728303246335797000,1.739796875,-0.9254302978515625,0.0221710205078125,-0.0036468505859375
1728303246345857000,1.74985693359375,-0.90997314453125,0.036346435546875,-0.0147705078125
1728303246355917300,1.759917236328125,-1.0197906494140625,0.0247344970703125,-0.0110015869140625
1728303246365977000,1.76997705078125,-0.9663543701171875,0.0247344970703125,-0.0048370361328125
1728303246376037000,1.780037109375,-0.915008544921875,0.0285797119140625,-0.0211029052734375
1728303246386097200,1.79009716796875,-1.0036163330078125,0.03399658203125,-0.00537109375
1728303246396157000,1.800156982421875,-0.965423583984375,0.03961181640625,0.0038299560546875
1728303246406217200,1.81021728515625,-0.9476470947265625,0.042694091796875,-0.0027313232421875
1728303246416277200,1.82027734375,-1.0366973876953125,0.01995849609375,-0.0025634765625
1728303246426337300,1.830337158203125,-0.9925689697265625,0.0278167724609375,-0.01226806640625
1728303246436397000,1.84039697265625,-0.9076080322265625,0.035491943359375,-0.0110015869140625
1728303246446457000,1.85045703125,-1.042572021484375,0.0267791748046875,0.0078125
1728303246456517000,1.86051708984375,-0.9958953857421875,0.009490966796875,0.0038604736328125
1728303246466577200,1.8705771484375,-0.9693145751953125,0.0178985595703125,-0.010223388671875
1728303246476637000,1.880636962890625,-1.0423126220703125,0.01397705078125,0.0040130615234375
1728303246486697000,1.890697021484375,-0.9701080322265625,0.0060882568359375,0.01031494140625
1728303246496757000,1.900757080078125,-0.92730712890625,0.0167236328125,0.0058135986328125
1728303246506817000,1.910817138671875,-1.0347900390625,0.0042877197265625,0.00714111328125
1728303246516877000,1.920876953125,-0.994110107421875,-0.0045166015625,0.009552001953125
1728303246526937000,1.93093701171875,-0.94268798828125,0.0130157470703125,-0.003143310546875
1728303246536997000,1.9409970703125,-1.0166778564453125,0.01123046875,0.0015411376953125
1728303246547057000,1.951056884765625,-0.98748779296875,-0.0135955810546875,0.0122528076171875
1728303246557117000,1.961116943359375,-0.96044921875,0.0099945068359375,0.0010833740234375
1728303246567177000,1.971177001953125,-1.0257415771484375,0.007904052734375,0.0094451904296875
1728303246577237000,1.981237060546875,-0.98712158203125,-0.0006256103515625,0.0159759521484375
1728303246587297000,1.991297119140625,-0.935333251953125,0.0096893310546875,0.00115966796875
1728303246597357000,2.001357177734375,-1.0322418212890625,0.002227783203125,0.0079193115234375
1728303246607417000,2.0114169921875,-1.0261383056640625,0.0089111328125,0.0193939208984375
1728303246617476900,2.021476806640625,-0.976165771484375,0.006134033203125,0.01812744140625
1728303246627537000,2.031536865234375,-1.0232086181640625,0.0020751953125,0.014617919921875
1728303246637597200,2.04159716796875,-1.0010223388671875,0.0098114013671875,0.0125885009765625
1728303246647657000,2.051656982421875,-0.9903717041015625,0.0020751953125,0.021728515625
1728303246657717000,2.061717041015625,-1.0249786376953125,-0.0064849853515625,0.0199127197265625
1728303246667777000,2.071777099609375,-0.9946136474609375,0.00042724609375,0.022186279296875
1728303246677836800,2.0818369140625,-0.967132568359375,0.0062713623046875,0.02117919921875
1728303246687897000,2.09189697265625,-1.0200958251953125,-0.007568359375,0.0200042724609375
1728303246697957000,2.10195703125,-1.0070648193359375,-0.0045318603515625,0.0268096923828125
1728303246708017200,2.11201708984375,-0.9485626220703125,-0.0001220703125,0.01458740234375
1728303246718077000,2.122076904296875,-1.0270843505859375,0.0038909912109375,0.005401611328125
1728303246728137000,2.132136962890625,-0.985595703125,-0.0125274658203125,0.0162811279296875
1728303246738197000,2.142197021484375,-0.9241180419921875,0.0099334716796875,0.0041656494140625
1728303246748257000,2.152257080078125,-1.0122222900390625,0.0004730224609375,-0.004547119140625
1728303246758317000,2.162317138671875,-1.0350341796875,-0.0180206298828125,0.006805419921875
1728303246768377000,2.172377197265625,-0.920806884765625,0.0018463134765625,0.0083160400390625
1728303246778436900,2.182436767578125,-1.0055389404296875,0.009735107421875,-0.005950927734375
1728303246788497000,2.192496826171875,-1.0074920654296875,-0.00885009765625,0.0099639892578125
1728303246798557000,2.202556884765625,-0.9577484130859375,0.0075836181640625,0.00897216796875
1728303246808617200,2.2126171875,-1.031646728515625,0.0019378662109375,0.0009613037109375
1728303246818677000,2.222677001953125,-1.0355377197265625,-0.003997802734375,-0.0008392333984375
1728303246828737000,2.232737060546875,-0.91229248046875,0.005096435546875,0.0049896240234375
1728303246838797000,2.242797119140625,-0.9693756103515625,0.0047760009765625,-0.0039520263671875
1728303246848856800,2.25285693359375,-1.0614013671875,-0.0129241943359375,0.010284423828125
1728303246858917000,2.262917236328125,-0.956298828125,-0.0100250244140625,-0.0035400390625
1728303246868977200,2.27297705078125,-0.9922943115234375,0.0077972412109375,-0.00439453125
1728303246879037000,2.283036865234375,-1.026275634765625,-0.0043182373046875,0.014556884765625
1728303246889097000,2.293096923828125,-0.9344940185546875,-0.0063323974609375,0.0037384033203125
1728303246899157000,2.303156982421875,-0.93145751953125,-0.0000457763671875,-0.0081939697265625
1728303246909217000,2.313217041015625,-1.048095703125,0.0016021728515625,0.00323486328125
1728303246919277000,2.323277099609375,-0.9883575439453125,-0.003509521484375,0.0139007568359375
1728303246929337000,2.333337158203125,-0.924041748046875,-0.00018310546875,-0.002471923828125
1728303246939397000,2.343397216796875,-1.021453857421875,-0.0106201171875,0.0074310302734375
1728303246949457000,2.353456787109375,-0.98150634765625,-0.0089874267578125,0.0049896240234375
1728303246959517000,2.363516845703125,-0.917724609375,0.006744384765625,0.009735107421875
1728303246969577000,2.373576904296875,-1.06097412109375,0.0029449462890625,0.01678466796875
1728303246979637000,2.383636962890625,-0.9876251220703125,-0.00872802734375,0.011962890625
1728303246989697000,2.393697021484375,-0.91412353515625,0.0182037353515625,-0.0014801025390625
1728303246999757000,2.403757080078125,-1.0096282958984375,0.01605224609375,0.0098876953125
1728303247009816800,2.41381689453125,-1.033599853515625,0.0091094970703125,0.0093536376953125
1728303247019876900,2.423876953125,-0.9247283935546875,0.0331268310546875,0.0037994384765625
1728303247029937200,2.433937255859375,-0.9976043701171875,0.02899169921875,-0.00555419921875
1728303247039997200,2.4439970703125,-1.0228424072265625,0.0272979736328125,-0.000762939453125
1728303247050057000,2.454056884765625,-0.9469451904296875,0.04656982421875,-0.00140380859375
1728303247060117000,2.464116943359375,-0.9925384521484375,0.0494537353515625,-0.0129241943359375
1728303247070177000,2.474177001953125,-1.0563812255859375,0.0385284423828125,0.008209228515625
1728303247080236800,2.48423681640625,-0.9326324462890625,0.0389862060546875,-0.01214599609375
1728303247090297000,2.494297119140625,-0.96527099609375,0.0645599365234375,-0.01470947265625
1728303247100357000,2.504357177734375,-1.0872955322265625,0.0506591796875,0.00299072265625
1728303247110417000,2.5144169921875,-0.9812164306640625,0.0532684326171875,0.0178070068359375
1728303247120477000,2.524476806640625,-0.95745849609375,0.0637664794921875,-0.003692626953125
1728303247130537000,2.534536865234375,-1.03155517578125,0.0566558837890625,0.0035400390625
1728303247140597000,2.544596923828125,-1.0054473876953125,0.0686798095703125,0.0198822021484375
1728303247150657000,2.554656982421875,-0.9551239013671875,0.064910888671875,0.0099945068359375
1728303247160717000,2.564717041015625,-1.0438232421875,0.0626068115234375,0.017852783203125
1728303247170777000,2.574777099609375,-1.0045318603515625,0.0743560791015625,0.0331878662109375
1728303247180836900,2.5848369140625,-0.945220947265625,0.0675048828125,0.0002288818359375
1728303247190897000,2.59489697265625,-1.06280517578125,0.0694732666015625,0.0238494873046875
1728303247200957200,2.604957275390625,-0.99737548828125,0.076934814453125,0.0325164794921875
1728303247211017000,2.615016845703125,-0.93865966796875,0.084991455078125,0.0094451904296875
1728303247221077000,2.625076904296875,-1.035736083984375,0.0709075927734375,0.0082550048828125
1728303247231137000,2.635136962890625,-1.017608642578125,0.0822906494140625,0.0225677490234375
1728303247241197000,2.645197021484375,-0.95172119140625,0.0826568603515625,0.0133056640625
1728303247251256800,2.6552568359375,-0.9952392578125,0.0812225341796875,0.0059967041015625
1728303247261317000,2.665317138671875,-1.013916015625,0.0805206298828125,0.0058746337890625
1728303247271377200,2.675377197265625,-0.9480133056640625,0.0815277099609375,0.015228271484375
1728303247281437000,2.68543701171875,-0.9932098388671875,0.077606201171875,0.00341796875
1728303247291497000,2.6954970703125,-1.02105712890625,0.0830841064453125,0.005157470703125
1728303247301557000,2.705556884765625,-0.923065185546875,0.09002685546875,0.0080718994140625
1728303247311617000,2.715616943359375,-1.013336181640625,0.0921478271484375,0.00042724609375
1728303247321677000,2.725677001953125,-1.0260467529296875,0.07012939453125,-0.002716064453125
1728303247331737000,2.735737060546875,-0.9202880859375,0.095550537109375,-0.002471923828125
1728303247341797000,2.745797119140625,-0.9953460693359375,0.1026611328125,-0.001739501953125
1728303247351857000,2.75585693359375,-1.0294189453125,0.0809478759765625,-0.0034637451171875
1728303247361917000,2.7659169921875,-0.95025634765625,0.0908660888671875,0.01116943359375
1728303247371977200,2.775977294921875,-0.994293212890625,0.0898590087890625,-0.00286865234375
1728303247382037000,2.786037109375,-1.020294189453125,0.093048095703125,0.0089569091796875
1728303247392097000,2.796096923828125,-0.927947998046875,0.0925140380859375,-0.001739501953125
1728303247402157000,2.806156982421875,-0.9958038330078125,0.099365234375,0.006072998046875
1728303247412216800,2.816216796875,-1.0513458251953125,0.0890655517578125,0.0234222412109375
1728303247422276900,2.82627685546875,-0.9363861083984375,0.0906829833984375,0.0113372802734375
1728303247432337200,2.836337158203125,-0.997314453125,0.0921630859375,-0.01470947265625
1728303247442397200,2.846397216796875,-1.0488128662109375,0.0969390869140625,0.0140533447265625
1728303247452457000,2.85645703125,-0.9199066162109375,0.105194091796875,0.01031494140625
1728303247462517000,2.86651708984375,-0.98846435546875,0.1105804443359375,0.00341796875
1728303247472577000,2.876576904296875,-1.06707763671875,0.088653564453125,0.018798828125
1728303247482637000,2.886636962890625,-0.94830322265625,0.09765625,0.0081787109375
1728303247492697000,2.896697021484375,-0.99346923828125,0.1057586669921875,-0.003753662109375
1728303247502757000,2.906757080078125,-1.0530242919921875,0.103485107421875,0.0100555419921875
1728303247512817000,2.91681689453125,-0.956634521484375,0.1115570068359375,0.0101165771484375
1728303247522877000,2.926876953125,-0.97674560546875,0.1082916259765625,-0.004608154296875
1728303247532937000,2.93693701171875,-1.077301025390625,0.10528564453125,0.0070343017578125
1728303247542997200,2.946997314453125,-0.9817047119140625,0.1029205322265625,-0.0033416748046875
1728303247553057000,2.95705712890625,-0.997222900390625,0.1094512939453125,-0.0188446044921875
1728303247563117000,2.967116943359375,-1.0735015869140625,0.1125335693359375,0.006561279296875
1728303247573177000,2.977177001953125,-0.9560089111328125,0.1057281494140625,-0.0034637451171875
1728303247583236900,2.98723681640625,-0.99078369140625,0.1126251220703125,-0.019134521484375
1728303247593297000,2.997296875,-1.0887908935546875,0.103515625,-0.0006561279296875
1728303247603357200,3.007357177734375,-0.985443115234375,0.1086883544921875,-0.0026092529296875
1728303247613417000,3.0174169921875,-0.93609619140625,0.1069488525390625,-0.0194854736328125
1728303247623477000,3.02747705078125,-1.054962158203125,0.11016845703125,-0.0083770751953125
1728303247633537000,3.037537109375,-1.0050506591796875,0.1141204833984375,0.00347900390625
1728303247643596800,3.0475966796875,-0.95477294921875,0.1072998046875,-0.01458740234375
1728303247653656800,3.05765673828125,-1.0606689453125,0.1034698486328125,-0.004669189453125
1728303247663717000,3.067717041015625,-0.970458984375,0.1085052490234375,-0.0013885498046875
1728303247673777200,3.077777099609375,-0.9185638427734375,0.1165008544921875,-0.019439697265625
1728303247683837000,3.0878369140625,-1.06427001953125,0.0960540771484375,0.0056304931640625
1728303247693897000,3.09789697265625,-1.0055084228515625,0.0986480712890625,0.0224456787109375
1728303247703957000,3.10795703125,-0.9376220703125,0.1123504638671875,0.0027008056640625
1728303247714017000,3.11801708984375,-1.0125274658203125,0.097076416015625,-0.00836181640625
1728303247724077000,3.1280771484375,-1.0208892822265625,0.0939788818359375,0.0129241943359375
1728303247734137000,3.13813720703125,-0.930572509765625,0.1141204833984375,0.008026123046875
1728303247744196900,3.14819677734375,-1.041748046875,0.0979766845703125,0.0172119140625
1728303247754257000,3.1582568359375,-0.99395751953125,0.0867156982421875,0.0144805908203125
1728303247764317000,3.16831689453125,-0.90325927734375,0.1047515869140625,0.0014190673828125
1728303247774377200,3.178377197265625,-1.0195770263671875,0.1005706787109375,0.0064239501953125
1728303247784437000,3.18843701171875,-1.0140380859375,0.0971527099609375,0.026641845703125
1728303247794497000,3.1984970703125,-0.9492034912109375,0.1074981689453125,0.010009765625
1728303247804557000,3.20855712890625,-1.01934814453125,0.0977630615234375,0.0109405517578125
1728303247814616800,3.218616943359375,-1.000640869140625,0.0965423583984375,0.0167388916015625
1728303247824676900,3.2286767578125,-0.929412841796875,0.109222412109375,-0.00103759765625
1728303247834737200,3.238737060546875,-1.000274658203125,0.097442626953125,0.0043792724609375
1728303247844797000,3.248796875,-1.0118560791015625,0.097198486328125,0.013153076171875
1728303247854857000,3.25885693359375,-0.9453582763671875,0.09783935546875,-0.0045318603515625
1728303247864917000,3.2689169921875,-1.0018310546875,0.0944061279296875,-0.00213623046875
1728303247874977000,3.27897705078125,-0.99761962890625,0.0883026123046875,0.001068115234375
1728303247885037000,3.289037109375,-0.944366455078125,0.096710205078125,-0.005462646484375
1728303247895097000,3.29909716796875,-1.0015411376953125,0.091400146484375,-0.0077362060546875
1728303247905157000,3.3091572265625,-0.997467041015625,0.0920257568359375,0.0059051513671875
1728303247915217000,3.319216796875,-0.9567108154296875,0.1023101806640625,-0.017974853515625
1728303247925277000,3.32927685546875,-1.00994873046875,0.0993499755859375,-0.0231170654296875
1728303247935337000,3.3393369140625,-0.993255615234375,0.1020050048828125,-0.0048065185546875
1728303247945397000,3.34939697265625,-0.9470062255859375,0.1053466796875,-0.017333984375
1728303247955457000,3.35945703125,-1.0212249755859375,0.088287353515625,-0.0260467529296875
1728303247965517000,3.36951708984375,-1.00244140625,0.08135986328125,-0.01007080078125
1728303247975577000,3.3795771484375,-0.9539642333984375,0.0609588623046875,-0.0139617919921875
1728303247985636900,3.389636962890625,-1.0138092041015625,0.0186920166015625,-0.0252838134765625
1728303247995697000,3.39969677734375,-1.0180206298828125,0.006439208984375,-0.0101165771484375
1728303248005757200,3.409757080078125,-0.9651641845703125,-0.00262451171875,-0.019775390625
1728303248015817000,3.41981689453125,-1.0160980224609375,0.0031280517578125,-0.0318145751953125
1728303248025877000,3.429876953125,-1.001708984375,0.015838623046875,-0.0161285400390625
1728303248035937000,3.43993701171875,-0.967987060546875,0.0186614990234375,-0.007232666015625
1728303248045996800,3.449996826171875,-1.037445068359375,0.0058746337890625,-0.0064697265625
1728303248056057000,3.46005712890625,-1.0062103271484375,0.007659912109375,-0.0030517578125
1728303248066117000,3.4701171875,-0.953765869140625,0.01312255859375,-0.0074310302734375
1728303248076177200,3.48017724609375,-1.0343170166015625,-0.0055084228515625,-0.014007568359375
1728303248086237000,3.49023681640625,-0.9945220947265625,-0.017730712890625,-0.000885009765625
1728303248096297000,3.500296875,-0.957000732421875,-0.005615234375,-0.0018157958984375
1728303248106357000,3.51035693359375,-1.0318450927734375,-0.0111236572265625,-0.006866455078125
1728303248116417000,3.5204169921875,-1.0005035400390625,-0.0142364501953125,0.0001220703125
1728303248126477000,3.53047705078125,-0.9499664306640625,0.0023651123046875,-0.0066070556640625
1728303248136537000,3.540537109375,-1.0238494873046875,-0.019775390625,-0.006195068359375
1728303248146596900,3.550596923828125,-0.9963531494140625,-0.0076446533203125,0.008270263671875
1728303248156657000,3.560656982421875,-0.9654998779296875,0.006591796875,-0.00384521484375
1728303248166717000,3.570717041015625,-1.020721435546875,-0.0006256103515625,-0.0086669921875
1728303248176777000,3.58077685546875,-0.9943084716796875,-0.0112152099609375,0.0007171630859375
1728303248186837000,3.5908369140625,-0.95379638671875,0.0003509521484375,-0.00506591796875
1728303248196897000,3.60089697265625,-1.0335235595703125,-0.009033203125,-0.00738525390625
1728303248206957000,3.61095703125,-0.998443603515625,-0.002716064453125,0.0009918212890625
1728303248217016800,3.621016845703125,-0.9618072509765625,0.0023345947265625,-0.0079803466796875
1728303248227077000,3.6310771484375,-1.0112457275390625,-0.0024566650390625,-0.008026123046875
1728303248237137200,3.64113720703125,-0.9827117919921875,0.0043182373046875,0.0024871826171875
1728303248247197000,3.651197021484375,-0.9764556884765625,0.0083160400390625,-0.00201416015625
1728303248257257000,3.661257080078125,-1.0313873291015625,-0.00494384765625,-0.000457763671875
1728303248267317000,3.67131689453125,-0.9846649169921875,-0.0004730224609375,0.002716064453125
1728303248277376800,3.681376708984375,-0.9720916748046875,0.00445556640625,-0.001007080078125
1728303248287437000,3.69143701171875,-1.0175628662109375,-0.0069427490234375,0.0005950927734375
1728303248297497000,3.7014970703125,-0.974365234375,-0.0036773681640625,0.005859375
1728303248307557000,3.71155712890625,-0.96820068359375,0.0042724609375,-0.0052490234375
1728303248317617000,3.721616943359375,-1.0308380126953125,-0.00885009765625,-0.0063323974609375
1728303248327677000,3.731677001953125,-0.993743896484375,-0.0084991455078125,0.015472412109375
1728303248337737000,3.741737060546875,-0.946685791015625,0.006439208984375,-0.00408935546875
1728303248347797000,3.751796875,-1.03271484375,-0.0071868896484375,0.001922607421875
1728303248357857000,3.76185693359375,-0.9822540283203125,-0.0048065185546875,0.009429931640625
1728303248367917000,3.7719169921875,-0.95751953125,0.005096435546875,-0.000518798828125
1728303248377976800,3.781976806640625,-1.0303802490234375,-0.0020599365234375,0.011260986328125
1728303248388036900,3.792036865234375,-0.986907958984375,-0.0020751953125,0.021240234375
1728303248398097200,3.80209716796875,-0.967254638671875,0.001800537109375,0.0048370361328125
1728303248408157200,3.8121572265625,-1.0167999267578125,-0.00640869140625,0.009857177734375
1728303248418217000,3.822217041015625,-0.966339111328125,-0.005157470703125,0.005584716796875
1728303248428277000,3.832277099609375,-0.9698944091796875,0.0010223388671875,-0.0084686279296875
1728303248438337000,3.8423369140625,-1.029205322265625,-0.008575439453125,0.00921630859375
1728303248448396800,3.852396728515625,-0.9689788818359375,0.0041046142578125,0.0103607177734375
1728303248458457000,3.86245703125,-0.9863739013671875,-0.0001678466796875,-0.00323486328125
1728303248468517000,3.87251708984375,-1.0249481201171875,-0.0078582763671875,0.004638671875
1728303248478577200,3.8825771484375,-0.956787109375,-0.003021240234375,0.0079498291015625
1728303248488637000,3.892636962890625,-0.9778900146484375,-0.001129150390625,-0.0108489990234375
1728303248498697000,3.902697021484375,-1.0099029541015625,-0.0029754638671875,0.0111083984375
1728303248508757000,3.912757080078125,-0.975921630859375,0.0048370361328125,-0.00592041015625
1728303248518816000,3.92281591796875,-1.004180908203125,-0.000213623046875,-0.0131378173828125
1728303248528876000,3.9328759765625,-0.9856719970703125,-0.006103515625,-0.0058441162109375
1728303248538936000,3.94293603515625,-0.9670867919921875,-0.0018463134765625,-0.0190887451171875
1728303248548996000,3.95299609375,-1.0057220458984375,-0.00616455078125,-0.0084686279296875
1728303248559056100,3.96305615234375,-0.9792633056640625,-0.0018310546875,0.0023040771484375
1728303248569116200,3.9731162109375,-0.97412109375,0.002166748046875,-0.0217437744140625
1728303248579176000,3.983176025390625,-0.9945831298828125,-0.007354736328125,-0.012664794921875
1728303248589236000,3.993236083984375,-1.002655029296875,0.0025634765625,-0.0106201171875
1728303248599296000,4.0032958984375,-1.0035247802734375,-0.004425048828125,-0.0145721435546875
1728303248609356000,4.01335595703125,-0.9720306396484375,-0.0089569091796875,-0.0095672607421875
1728303248619416000,4.023416015625,-0.9883270263671875,0.0052642822265625,-0.016571044921875
1728303248629476000,4.03347607421875,-0.9911041259765625,-0.0028533935546875,-0.0104827880859375
1728303248639536000,4.0435361328125,-0.989593505859375,0.008056640625,-0.009185791015625
1728303248649596000,4.053595947265625,-1.017608642578125,0.00048828125,-0.01336669921875
1728303248659656000,4.063656005859375,-0.982208251953125,-0.0068817138671875,-0.015625
1728303248669716200,4.07371630859375,-1.0050048828125,0.007537841796875,-0.0196380615234375
1728303248679776000,4.08377587890625,-0.99688720703125,-0.0001373291015625,-0.011322021484375
1728303248689836000,4.0938359375,-0.9949188232421875,0.0021514892578125,-0.01605224609375
1728303248699896000,4.10389599609375,-1.0208282470703125,0.0033416748046875,-0.0150604248046875
1728303248709955800,4.113955810546875,-0.975128173828125,0.003387451171875,-0.024139404296875
1728303248720016100,4.12401611328125,-1.0118865966796875,0.000030517578125,-0.0170135498046875
1728303248730076200,4.134076171875,-0.992340087890625,0.00238037109375,-0.0145111083984375
1728303248740136200,4.14413623046875,-1.0097198486328125,0.0022430419921875,-0.0176544189453125
1728303248750196000,4.154196044921875,-1.00872802734375,-0.0010528564453125,-0.012176513671875
1728303248760256000,4.164256103515625,-0.962860107421875,-0.003509521484375,-0.0185089111328125
1728303248770316000,4.17431591796875,-0.9955291748046875,-0.0045013427734375,-0.0097503662109375
1728303248780376000,4.1843759765625,-0.9826507568359375,-0.0009918212890625,-0.01318359375
1728303248790436000,4.19443603515625,-1.0082550048828125,-0.008026123046875,-0.0128021240234375
1728303248800496000,4.20449609375,-1.0037994384765625,0.00372314453125,-0.0030059814453125
1728303248810556000,4.214555908203125,-0.9603271484375,-0.0095672607421875,-0.0186767578125
1728303248820616000,4.224615966796875,-0.984161376953125,-0.0050201416015625,-0.003936767578125
1728303248830676000,4.234676025390625,-0.997222900390625,-0.0166015625,-0.0254669189453125
1728303248840736300,4.244736328125,-1.0107879638671875,-0.0098876953125,0.0075836181640625
1728303248850796000,4.254796142578125,-0.9902801513671875,-0.0002288818359375,-0.0110321044921875
1728303248860856000,4.26485595703125,-0.98968505859375,-0.0122528076171875,-0.008880615234375
1728303248870916000,4.274916015625,-1.0062255859375,-0.0473785400390625,-0.0130767822265625
1728303248880976000,4.284975830078125,-1.0037078857421875,-0.081756591796875,-0.0036773681640625
1728303248891036200,4.2950361328125,-0.98455810546875,-0.0462799072265625,-0.0063323974609375
1728303248901096200,4.30509619140625,-0.9969635009765625,-0.0603790283203125,-0.0039825439453125
1728303248911156000,4.315156005859375,-1.000274658203125,-0.03082275390625,-0.000885009765625
1728303248921216000,4.325216064453125,-0.9942779541015625,-0.0193939208984375,0.0018157958984375
1728303248931275000,4.33527490234375,-0.9787139892578125,0.0102691650390625,-0.0025787353515625
1728303248941335000,4.3453349609375,-1.0016021728515625,-0.00189208984375,-0.0051727294921875
1728303248951395000,4.35539501953125,-1.001617431640625,-0.0122528076171875,0.0029144287109375
1728303248961455000,4.365455078125,-0.9756927490234375,-0.0226898193359375,-0.00848388671875
1728303248971515000,4.375514892578125,-0.9932098388671875,-0.0433197021484375,-0.0052642822265625
1728303248981576000,4.385575927734375,-0.9859161376953125,-0.0506439208984375,-0.0129852294921875
1728303248991635200,4.39563525390625,-1.0099029541015625,-0.06817626953125,0.0013885498046875
1728303249001695200,4.4056953125,-0.994476318359375,-0.08685302734375,-0.0081634521484375
1728303249011755000,4.415755126953125,-0.9723663330078125,-0.0706787109375,0.0010833740234375
1728303249021815000,4.42581494140625,-0.9915618896484375,-0.0366973876953125,-0.0025634765625
1728303249031875000,4.435875,-0.984039306640625,-0.0418548583984375,0.0058441162109375
1728303249041934800,4.445934814453125,-1.010498046875,-0.033905029296875,-0.00885009765625
1728303249051995100,4.4559951171875,-0.9797821044921875,-0.06231689453125,0.00006103515625
1728303249062055200,4.46605517578125,-0.9791717529296875,-0.063323974609375,-0.028167724609375
1728303249072115000,4.476114990234375,-0.98681640625,-0.0965118408203125,-0.011016845703125
1728303249082175000,4.486175048828125,-0.9803466796875,-0.117156982421875,-0.025054931640625
1728303249092235000,4.496235107421875,-0.968658447265625,-0.128265380859375,-0.006378173828125
1728303249102295000,4.506294921875,-0.9652099609375,-0.1292572021484375,-0.028900146484375
1728303249112355800,4.51635595703125,-1.003997802734375,-0.1637725830078125,0.007537841796875
1728303249122416000,4.526416015625,-0.978851318359375,-0.1317291259765625,-0.018585205078125
1728303249132476200,4.53647607421875,-0.974517822265625,-0.1358795166015625,0.0029144287109375
1728303249142536200,4.5465361328125,-0.9789886474609375,-0.12823486328125,-0.0274505615234375
1728303249152596000,4.556595947265625,-1.0008544921875,-0.1421356201171875,-0.023468017578125
1728303249162656000,4.566656005859375,-0.964111328125,-0.095855712890625,-0.0327911376953125
1728303249172716000,4.576716064453125,-0.99761962890625,-0.1472015380859375,-0.0106048583984375
1728303249182776000,4.586776123046875,-0.963653564453125,-0.1812744140625,-0.03369140625
1728303249192836000,4.596836181640625,-0.987640380859375,-0.16729736328125,-0.00927734375
1728303249202896100,4.606896240234375,-0.9947357177734375,-0.147552490234375,-0.0062103271484375
1728303249212956000,4.616955810546875,-1.0106201171875,-0.184417724609375,0.0005035400390625
1728303249223016000,4.627015869140625,-0.9874725341796875,-0.1604156494140625,0.0222015380859375
1728303249233076000,4.637075927734375,-0.9140625,-0.11669921875,0.21343994140625
1728303249243136000,4.647135986328125,-1.076690673828125,-0.0917205810546875,-0.2447967529296875
1728303249253196000,4.657196044921875,-1.0384521484375,-0.1425323486328125,-0.0117645263671875
1728303249263256000,4.667256103515625,-0.9889678955078125,-0.1190185546875,0.010009765625
1728303249273316000,4.677316162109375,-1.000030517578125,-0.1345977783203125,-0.01861572265625
1728303249283375900,4.6873759765625,-1.0055694580078125,-0.1531982421875,-0.00592041015625
1728303249293436200,4.697436279296875,-1.0193939208984375,-0.1600494384765625,-0.0139312744140625
1728303249303496200,4.70749609375,-1.00726318359375,-0.180999755859375,0.0149383544921875
1728303249313556000,4.717555908203125,-1.004730224609375,-0.16717529296875,-0.0021209716796875
1728303249323616000,4.727615966796875,-1.015655517578125,-0.126312255859375,0.01971435546875
1728303249333676000,4.737676025390625,-1.00421142578125,-0.088134765625,-0.002471923828125
1728303249343735800,4.74773583984375,-1.0164642333984375,-0.0944366455078125,0.0153656005859375
1728303249353796000,4.757796142578125,-0.9838409423828125,-0.0876007080078125,-0.016204833984375
1728303249363856100,4.767856201171875,-0.986663818359375,-0.0967864990234375,-0.005279541015625
1728303249373916200,4.777916259765625,-0.9903564453125,-0.10858154296875,-0.0213775634765625
1728303249383976000,4.787975830078125,-0.9964447021484375,-0.158416748046875,-0.0192413330078125
1728303249394036000,4.798035888671875,-0.976409912109375,-0.1773529052734375,-0.0313720703125
1728303249404096000,4.808095947265625,-0.9867095947265625,-0.1526336669921875,-0.02862548828125
1728303249414156000,4.818156005859375,-0.9738616943359375,-0.1309051513671875,-0.009735107421875
1728303249424216000,4.828216064453125,-0.9840240478515625,-0.111846923828125,-0.022705078125
1728303249434276000,4.838276123046875,-0.9791412353515625,-0.106353759765625,-0.005828857421875
1728303249444335900,4.8483359375,-0.9433135986328125,-0.0767822265625,-0.0331878662109375
1728303249454396000,4.85839599609375,-0.958740234375,-0.087677001953125,-0.013336181640625
1728303249464456200,4.868456298828125,-0.9618682861328125,-0.105743408203125,-0.0485687255859375
1728303249474516000,4.878515869140625,-0.970184326171875,-0.159637451171875,-0.025390625
1728303249484576000,4.888575927734375,-0.9600830078125,-0.1766815185546875,-0.04986572265625
1728303249494635800,4.8986357421875,-0.9756011962890625,-0.1839141845703125,-0.028778076171875
1728303249504695800,4.90869580078125,-0.939422607421875,-0.1547088623046875,-0.04229736328125
1728303249514755800,4.918755859375,-0.96240234375,-0.153076171875,-0.00860595703125
1728303249524816000,4.92881591796875,-0.968170166015625,-0.1328277587890625,-0.0239410400390625
1728303249534876000,4.9388759765625,-0.9891815185546875,-0.1142425537109375,-0.01055908203125
1728303249544936000,4.94893603515625,-0.9736175537109375,-0.0846099853515625,-0.0282745361328125
1728303249554995700,4.95899560546875,-0.9705352783203125,-0.1151123046875,-0.0292816162109375
1728303249565055700,4.9690556640625,-0.9590606689453125,-0.1671142578125,-0.0385589599609375
1728303249575116000,4.979115966796875,-0.97430419921875,-0.1990509033203125,-0.0416412353515625
1728303249585176000,4.989176025390625,-0.9761199951171875,-0.19720458984375,-0.0437469482421875
1728303249595235800,4.99923583984375,-1.005096435546875,-0.2061614990234375,-0.0419158935546875
1728303249605295900,5.0092958984375,-0.982147216796875,-0.1914215087890625,-0.0318756103515625
1728303249615356000,5.01935595703125,-0.9919586181640625,-0.157012939453125,-0.032135009765625
1728303249625415700,5.029415771484375,-0.987884521484375,-0.100372314453125,-0.0204620361328125
1728303249635476000,5.03947607421875,-1.017974853515625,-0.092315673828125,-0.0203704833984375
1728303249645536000,5.049535888671875,-0.9957427978515625,-0.116455078125,-0.025726318359375
1728303249655595800,5.059595703125,-1.017578125,-0.1323699951171875,-0.035430908203125
1728303249665655800,5.06965576171875,-0.9883880615234375,-0.14923095703125,-0.04876708984375
1728303249675715800,5.0797158203125,-1.0274505615234375,-0.202972412109375,-0.0322723388671875
1728303249685776000,5.08977587890625,-1.0192413330078125,-0.2316131591796875,-0.0288238525390625
1728303249695836000,5.0998359375,-1.00726318359375,-0.2088775634765625,-0.0416717529296875
1728303249705896000,5.10989599609375,-1.01904296875,-0.136627197265625,-0.037506103515625
1728303249715956000,5.1199560546875,-1.0372772216796875,-0.1361846923828125,-0.02252197265625
1728303249726015700,5.130015625,-1.0398406982421875,-0.0974578857421875,-0.030548095703125
1728303249736075800,5.14007568359375,-1.027587890625,-0.0874481201171875,-0.0271453857421875
1728303249746136000,5.150135986328125,-0.9962310791015625,-0.0743408203125,-0.03497314453125
1728303249756195800,5.16019580078125,-1.020263671875,-0.129302978515625,-0.0299072265625
1728303249766255900,5.170255859375,-1.0156097412109375,-0.192901611328125,-0.06231689453125
1728303249776316000,5.18031591796875,-1.0461273193359375,-0.2287139892578125,-0.0216827392578125
1728303249786375700,5.190375732421875,-1.0061798095703125,-0.199371337890625,-0.042144775390625
1728303249796435700,5.200435791015625,-1.0028076171875,-0.217620849609375,-0.0236663818359375
1728303249806496000,5.21049609375,-1.0045013427734375,-0.189666748046875,-0.0330657958984375
1728303249816556000,5.22055615234375,-0.9957275390625,-0.1407623291015625,0.00189208984375
1728303249826615800,5.23061572265625,-0.9909515380859375,-0.0792388916015625,-0.029052734375
1728303249836675800,5.24067578125,-1.004913330078125,-0.115020751953125,0.0035858154296875
1728303249846736000,5.25073583984375,-0.964447021484375,-0.1118316650390625,-0.0271148681640625
1728303249856796000,5.2607958984375,-0.95013427734375,-0.1442718505859375,-0.0156402587890625
1728303249866856000,5.27085595703125,-0.9572906494140625,-0.18804931640625,-0.0372467041015625
1728303249876916000,5.280916015625,-0.9623565673828125,-0.264862060546875,-0.0145721435546875
1728303249886975700,5.290975830078125,-0.95574951171875,-0.257354736328125,-0.0399627685546875
1728303249897035800,5.301035888671875,-0.9550933837890625,-0.2392425537109375,-0.0078125
1728303249907095800,5.311095703125,-0.955230712890625,-0.1824798583984375,-0.0371856689453125
1728303249917156000,5.321156005859375,-0.9742584228515625,-0.1550445556640625,-0.0172119140625
1728303249927215900,5.3312158203125,-0.9668121337890625,-0.097015380859375,-0.0339202880859375
1728303249937276000,5.34127587890625,-0.9543304443359375,-0.0803985595703125,-0.0295257568359375
1728303249947336000,5.3513359375,-0.9364013671875,-0.093505859375,-0.0644073486328125
1728303249957395700,5.361395751953125,-0.955169677734375,-0.1718597412109375,-0.047576904296875
1728303249967455700,5.371455810546875,-0.951385498046875,-0.225860595703125,-0.07818603515625
1728303249977516000,5.38151611328125,-0.9460296630859375,-0.280914306640625,-0.077362060546875
1728303249987575800,5.391575927734375,-0.9777374267578125,-0.27117919921875,-0.0735321044921875
1728303249997635800,5.4016357421875,-0.93096923828125,-0.27984619140625,-0.0619964599609375
1728303250007696000,5.41169580078125,-0.973175048828125,-0.209808349609375,-0.078460693359375
1728303250017756000,5.421755859375,-1.0035858154296875,-0.13873291015625,-0.04864501953125
1728303250027816000,5.43181591796875,-0.974517822265625,-0.054351806640625,-0.0847320556640625
1728303250037876000,5.4418759765625,-0.927276611328125,-0.099517822265625,-0.0680694580078125
1728303250047936000,5.45193603515625,-0.9873199462890625,-0.11883544921875,-0.09381103515625
1728303250057995800,5.461995849609375,-0.9537506103515625,-0.1590118408203125,-0.0742645263671875
1728303250068055800,5.472055908203125,-0.965576171875,-0.2118072509765625,-0.10906982421875
1728303250078115800,5.48211572265625,-0.960784912109375,-0.313201904296875,-0.088531494140625
1728303250088175900,5.49217578125,-0.9833221435546875,-0.3162078857421875,-0.09393310546875
1728303250098236000,5.50223583984375,-0.9564361572265625,-0.25408935546875,-0.0673980712890625
1728303250108296000,5.5122958984375,-1.015106201171875,-0.1602783203125,-0.0778961181640625
1728303250118356000,5.52235595703125,-1.014923095703125,-0.1268463134765625,-0.0672760009765625
1728303250128415700,5.532415771484375,-0.9763946533203125,-0.06707763671875,-0.0663299560546875
1728303250138475800,5.542475830078125,-0.941650390625,-0.060089111328125,-0.0613250732421875
1728303250148536000,5.5525361328125,-0.9819488525390625,-0.1107635498046875,-0.085845947265625
1728303250158595800,5.562595947265625,-0.96099853515625,-0.1897735595703125,-0.0934906005859375
1728303250168656000,5.57265576171875,-0.9860076904296875,-0.262725830078125,-0.088653564453125
1728303250178716000,5.5827158203125,-0.977203369140625,-0.263458251953125,-0.0622406005859375
1728303250188775700,5.592775634765625,-0.9963836669921875,-0.2749786376953125,-0.0608062744140625
1728303250198836000,5.6028359375,-0.9973602294921875,-0.2667388916015625,-0.034088134765625
1728303250208896000,5.61289599609375,-1.012451171875,-0.1934814453125,-0.0290679931640625
1728303250218956000,5.6229560546875,-0.9989776611328125,-0.0828857421875,-0.020782470703125
1728303250229015800,5.633015869140625,-1.0314483642578125,-0.088775634765625,-0.03509521484375
1728303250239075800,5.643075927734375,-1.018646240234375,-0.1105194091796875,-0.0304718017578125
1728303250249135900,5.653135986328125,-0.988433837890625,-0.1303558349609375,-0.0611419677734375
1728303250259196000,5.66319580078125,-0.9539794921875,-0.1681976318359375,-0.0700531005859375
1728303250269256000,5.673255859375,-1.0235443115234375,-0.2684783935546875,-0.0945892333984375
1728303250279316000,5.68331591796875,-1.029144287109375,-0.267333984375,-0.059661865234375
1728303250289375700,5.693375732421875,-0.994903564453125,-0.2488250732421875,-0.0853729248046875
1728303250299435800,5.703435791015625,-1.012847900390625,-0.2221527099609375,-0.06396484375
1728303250309495800,5.713495849609375,-1.062774658203125,-0.1536407470703125,-0.0692901611328125
1728303250319556000,5.72355615234375,-1.0252227783203125,-0.102203369140625,-0.048980712890625
1728303250329616000,5.733615966796875,-1.0234832763671875,-0.1037750244140625,-0.05120849609375
1728303250339676000,5.743676025390625,-1.0094451904296875,-0.1081695556640625,-0.078399658203125
1728303250349736000,5.75373583984375,-1.03131103515625,-0.110809326171875,-0.07159423828125
1728303250359795700,5.763795654296875,-0.995361328125,-0.213134765625,-0.1050567626953125
1728303250369856000,5.77385595703125,-1.003662109375,-0.248779296875,-0.091705322265625
1728303250379916000,5.783916015625,-0.987457275390625,-0.211029052734375,-0.1006927490234375
1728303250389975800,5.793975830078125,-1.0177001953125,-0.2258148193359375,-0.1156158447265625
1728303250400035800,5.804035888671875,-1.0106964111328125,-0.215087890625,-0.1103973388671875
1728303250410095900,5.814095947265625,-1.02880859375,-0.1593170166015625,-0.090728759765625
1728303250420155600,5.82415576171875,-0.98028564453125,-0.086181640625,-0.0724639892578125
1728303250430216000,5.8342158203125,-1.0042877197265625,-0.12225341796875,-0.0899200439453125
1728303250440276000,5.84427587890625,-0.9832916259765625,-0.146087646484375,-0.0677490234375
1728303250450336000,5.8543359375,-0.9878692626953125,-0.1753692626953125,-0.0929412841796875
1728303250460395800,5.864395751953125,-0.9517364501953125,-0.2151031494140625,-0.0853271484375
1728303250470455800,5.874455810546875,-0.987091064453125,-0.2375946044921875,-0.1125335693359375
1728303250480515300,5.884515380859375,-0.9812164306640625,-0.2295989990234375,-0.095001220703125
1728303250490575400,5.894575439453125,-0.969207763671875,-0.21429443359375,-0.1157684326171875
1728303250500635100,5.90463525390625,-0.98345947265625,-0.1831207275390625,-0.09637451171875
1728303250510695200,5.914695068359375,-1.0035247802734375,-0.13720703125,-0.094207763671875
1728303250520755200,5.924755126953125,-0.9699554443359375,-0.1364593505859375,-0.0797576904296875
1728303250530815500,5.9348154296875,-0.9982757568359375,-0.1717529296875,-0.100921630859375
1728303250540875300,5.944875244140625,-0.984527587890625,-0.180084228515625,-0.0740203857421875
1728303250550935300,5.954935302734375,-0.97222900390625,-0.174591064453125,-0.0879974365234375
1728303250560995300,5.964995361328125,-0.9806976318359375,-0.209381103515625,-0.1017913818359375
1728303250571055000,5.97505517578125,-1.0040740966796875,-0.20458984375,-0.1143951416015625
1728303250581115100,5.985115234375,-0.9920806884765625,-0.1913604736328125,-0.1002197265625
1728303250591175400,5.995175537109375,-0.9840087890625,-0.183990478515625,-0.1236724853515625
1728303250601235200,6.005235107421875,-0.982208251953125,-0.2069244384765625,-0.107635498046875
1728303250611295200,6.015295166015625,-0.96929931640625,-0.200592041015625,-0.1019134521484375
1728303250621355300,6.025355224609375,-0.94488525390625,-0.18914794921875,-0.100677490234375
1728303250631415300,6.035415283203125,-0.9629364013671875,-0.17584228515625,-0.1049957275390625
1728303250641475300,6.045475341796875,-0.962554931640625,-0.188018798828125,-0.097808837890625
1728303250651535400,6.055535400390625,-0.9561614990234375,-0.16973876953125,-0.133056640625
1728303250661595400,6.065595458984375,-0.966583251953125,-0.18023681640625,-0.127227783203125
1728303250671655200,6.0756552734375,-0.98895263671875,-0.1676483154296875,-0.160369873046875
1728303250681715200,6.085715087890625,-0.995208740234375,-0.16497802734375,-0.18267822265625
1728303250691775200,6.095775146484375,-0.9849395751953125,-0.13067626953125,-0.1858673095703125
1728303250701835300,6.105835205078125,-1.0090789794921875,-0.13177490234375,-0.1987152099609375
1728303250711895300,6.115895263671875,-1.0171661376953125,-0.1241912841796875,-0.192901611328125
1728303250721955300,6.125955322265625,-1.052032470703125,-0.105682373046875,-0.1990966796875
1728303250732015400,6.136015380859375,-1.0169219970703125,-0.10260009765625,-0.1912384033203125
1728303250742075100,6.1460751953125,-1.057159423828125,-0.098602294921875,-0.1804656982421875
1728303250752135200,6.15613525390625,-1.0472869873046875,-0.104278564453125,-0.211334228515625
1728303250762195500,6.166195556640625,-1.0114593505859375,-0.0897979736328125,-0.2074737548828125
1728303250772255200,6.176255126953125,-1.0016021728515625,-0.0865020751953125,-0.2104339599609375
1728303250782315300,6.186315185546875,-1.0379791259765625,-0.08831787109375,-0.22650146484375
1728303250792375300,6.196375244140625,-0.99566650390625,-0.06884765625,-0.1848602294921875
1728303250802435000,6.20643505859375,-1.0338592529296875,-0.055389404296875,-0.1752166748046875
1728303250812495000,6.2164951171875,-1.0178680419921875,-0.07354736328125,-0.1535186767578125
1728303250822555400,6.226555419921875,-1.0135955810546875,-0.065185546875,-0.1530914306640625
1728303250832615200,6.236615234375,-1.0095977783203125,-0.0670928955078125,-0.1378021240234375
1728303250842675200,6.24667529296875,-1.003875732421875,-0.079193115234375,-0.1180572509765625
1728303250852735200,6.2567353515625,-0.992889404296875,-0.093414306640625,-0.104766845703125
1728303250862795300,6.266795166015625,-0.9759674072265625,-0.0904083251953125,-0.1221160888671875
1728303250872855300,6.276855224609375,-0.9475250244140625,-0.1024627685546875,-0.1005859375
1728303250882915300,6.286915283203125,-0.948944091796875,-0.11767578125,-0.119659423828125
1728303250892975400,6.296975341796875,-0.8954620361328125,-0.114471435546875,-0.1092376708984375
1728303250903035100,6.30703515625,-0.8892669677734375,-0.1258392333984375,-0.1441192626953125
1728303250913095200,6.31709521484375,-0.885284423828125,-0.1183624267578125,-0.120880126953125
1728303250923155200,6.3271552734375,-0.90533447265625,-0.1197357177734375,-0.119140625
1728303250933215200,6.33721533203125,-0.8924560546875,-0.1346435546875,-0.1354522705078125
1728303250943275300,6.347275146484375,-0.9132537841796875,-0.136810302734375,-0.126983642578125
1728303250953335300,6.357335205078125,-0.913116455078125,-0.144134521484375,-0.1345672607421875
1728303250963395300,6.367395263671875,-0.9447784423828125,-0.1550140380859375,-0.1278076171875
1728303250973455000,6.377455078125,-0.935638427734375,-0.152099609375,-0.1390380859375
1728303250983515100,6.38751513671875,-0.9515533447265625,-0.1518096923828125,-0.1172943115234375
1728303250993575400,6.397575439453125,-0.9459228515625,-0.1392364501953125,-0.1572265625
1728303251003635200,6.40763525390625,-1.012420654296875,-0.148956298828125,-0.1316680908203125
1728303251013695200,6.4176953125,-1.0013885498046875,-0.15521240234375,-0.1536407470703125
1728303251023755300,6.42775537109375,-0.9897613525390625,-0.1404876708984375,-0.1414794921875
1728303251033815000,6.43781494140625,-0.995208740234375,-0.1450653076171875,-0.1586151123046875
1728303251043875300,6.447875244140625,-0.997711181640625,-0.1513519287109375,-0.1495819091796875
1728303251053935400,6.457935302734375,-1.0128936767578125,-0.1286163330078125,-0.1673736572265625
1728303251063995400,6.467995361328125,-1.0055389404296875,-0.1301422119140625,-0.1566314697265625
1728303251074055200,6.47805517578125,-0.9839324951171875,-0.1327362060546875,-0.1993255615234375
1728303251084115200,6.488115234375,-0.99945068359375,-0.1193695068359375,-0.1844329833984375
1728303251094175200,6.49817529296875,-0.988128662109375,-0.139312744140625,-0.2202606201171875
1728303251104235300,6.5082353515625,-0.9875946044921875,-0.097320556640625,-0.195159912109375
1728303251114295300,6.51829541015625,-0.9839935302734375,-0.1007080078125,-0.2113494873046875
1728303251124355300,6.528355224609375,-0.976226806640625,-0.068695068359375,-0.2406768798828125
1728303251134415000,6.5384150390625,-0.99359130859375,-0.0979766845703125,-0.2171783447265625
1728303251144475100,6.54847509765625,-1.0014495849609375,-0.0942840576171875,-0.2490692138671875
1728303251154535200,6.55853515625,-0.9986724853515625,-0.0883331298828125,-0.2241973876953125
1728303251164595500,6.568595458984375,-1.0284271240234375,-0.06719970703125,-0.2266387939453125
1728303251174655200,6.5786552734375,-1.0117340087890625,-0.084747314453125,-0.2281646728515625
1728303251184715300,6.58871533203125,-1.0065460205078125,-0.069549560546875,-0.1894378662109375
1728303251194775300,6.598775390625,-1.0142059326171875,-0.0867462158203125,-0.222625732421875
1728303251204835000,6.6088349609375,-1.027618408203125,-0.0706787109375,-0.23248291015625
1728303251214895400,6.618895263671875,-1.0190887451171875,-0.0770111083984375,-0.1992950439453125
1728303251224955400,6.628955322265625,-1.0079193115234375,-0.0712127685546875,-0.1948699951171875
1728303251235015200,6.63901513671875,-1.0196533203125,-0.0449371337890625,-0.2153778076171875
1728303251245075200,6.6490751953125,-1.0538330078125,-0.0509185791015625,-0.208526611328125
1728303251255135200,6.65913525390625,-1.0632781982421875,-0.06170654296875,-0.266632080078125
1728303251265195300,6.6691953125,-1.065673828125,-0.041168212890625,-0.2154388427734375
1728303251275255300,6.67925537109375,-1.0855865478515625,-0.02362060546875,-0.23797607421875
1728303251285315300,6.6893154296875,-1.0386810302734375,-0.0507354736328125,-0.255340576171875
1728303251295375400,6.699375244140625,-1.0738677978515625,-0.0689239501953125,-0.27911376953125
1728303251305435100,6.70943505859375,-1.0659942626953125,-0.08441162109375,-0.2741241455078125
1728303251315495200,6.7194951171875,-0.99072265625,-0.0608062744140625,-0.2552490234375
1728303251325555200,6.72955517578125,-1.0082550048828125,-0.0427093505859375,-0.26611328125
1728303251335615200,6.739615234375,-1.0317230224609375,-0.0876007080078125,-0.2264251708984375
1728303251345675300,6.74967529296875,-1.0203094482421875,-0.067596435546875,-0.2327728271484375
1728303251355735300,6.7597353515625,-0.97064208984375,-0.1060943603515625,-0.21917724609375
1728303251365795000,6.769795166015625,-0.953216552734375,-0.0960693359375,-0.25054931640625
1728303251375855000,6.779855224609375,-0.98663330078125,-0.0956878662109375,-0.22967529296875
1728303251385915400,6.789915283203125,-0.9453125,-0.073516845703125,-0.1927337646484375
1728303251395975400,6.799975341796875,-0.9829254150390625,-0.091156005859375,-0.2335968017578125
1728303251406035200,6.81003515625,-0.9748382568359375,-0.1130218505859375,-0.2317047119140625
1728303251416095200,6.82009521484375,-0.95953369140625,-0.082305908203125,-0.228668212890625
1728303251426155300,6.8301552734375,-0.9731597900390625,-0.0892333984375,-0.2148895263671875
1728303251436215000,6.840215087890625,-0.9937591552734375,-0.1008758544921875,-0.23675537109375
1728303251446275300,6.850275390625,-0.984466552734375,-0.0888824462890625,-0.2746429443359375
1728303251456335400,6.86033544921875,-0.9868011474609375,-0.1042327880859375,-0.22857666015625
1728303251466395100,6.87039501953125,-1.0017547607421875,-0.0816497802734375,-0.23876953125
1728303251476456200,6.880456298828125,-0.98876953125,-0.075531005859375,-0.224761962890625
1728303251486516200,6.89051611328125,-0.9853363037109375,-0.057220458984375,-0.25360107421875
1728303251496576000,6.900575927734375,-0.9852142333984375,-0.11224365234375,-0.249298095703125
1728303251506636000,6.910635986328125,-0.9849090576171875,-0.08062744140625,-0.238739013671875
1728303251516696300,6.9206962890625,-0.978118896484375,-0.057373046875,-0.248016357421875
1728303251526756000,6.930756103515625,-0.961151123046875,-0.0696258544921875,-0.2290496826171875
1728303251536816000,6.940816162109375,-0.9555206298828125,-0.05645751953125,-0.2678375244140625
1728303251546876200,6.950876220703125,-0.97723388671875,-0.0587615966796875,-0.2339324951171875
1728303251556936000,6.96093603515625,-0.97503662109375,-0.0074462890625,-0.2539520263671875
1728303251566996200,6.970996337890625,-0.987701416015625,-0.065765380859375,-0.26531982421875
1728303251577056300,6.98105615234375,-0.9780731201171875,-0.07171630859375,-0.2712860107421875
1728303251587116300,6.9911162109375,-0.95391845703125,-0.034027099609375,-0.27783203125
1728303251597176000,7.001176025390625,-0.911865234375,-0.030975341796875,-0.28289794921875
1728303251607236000,7.011236083984375,-0.9015960693359375,-0.032318115234375,-0.2989959716796875
1728303251617296100,7.021296142578125,-0.92095947265625,-0.0648040771484375,-0.2730712890625
1728303251627356200,7.031356201171875,-0.9270172119140625,-0.0276031494140625,-0.29791259765625
1728303251637416200,7.041416259765625,-0.9128265380859375,-0.015777587890625,-0.2864532470703125
1728303251647476200,7.051476318359375,-0.9251708984375,-0.050567626953125,-0.3104400634765625
1728303251657536000,7.061535888671875,-0.9474639892578125,-0.0437774658203125,-0.325439453125
1728303251667596000,7.071595947265625,-0.9357757568359375,-0.0491485595703125,-0.3284149169921875
1728303251677656000,7.081656005859375,-0.8819122314453125,-0.0189208984375,-0.348663330078125
1728303251687716400,7.09171630859375,-0.911712646484375,-0.0547637939453125,-0.335296630859375
1728303251697776000,7.101776123046875,-0.9360504150390625,-0.0305023193359375,-0.3389434814453125
1728303251707836200,7.111836181640625,-0.9611968994140625,-0.0433807373046875,-0.343170166015625
1728303251717896200,7.121896240234375,-0.9404144287109375,-0.0506591796875,-0.3287353515625
1728303251727956000,7.1319560546875,-0.9407196044921875,-0.0639801025390625,-0.32012939453125
1728303251738016300,7.142016357421875,-0.93084716796875,-0.0250396728515625,-0.3432464599609375
1728303251748076300,7.152076171875,-0.96466064453125,-0.022918701171875,-0.325469970703125
1728303251758136000,7.162135986328125,-0.962310791015625,-0.072662353515625,-0.337615966796875
1728303251768196000,7.172196044921875,-0.9976959228515625,-0.0389404296875,-0.3198699951171875
1728303251778256100,7.182256103515625,-0.9893798828125,-0.0115966796875,-0.3216705322265625
1728303251788316000,7.19231591796875,-1.012969970703125,-0.0525360107421875,-0.2944183349609375
1728303251798376200,7.202376220703125,-1.014007568359375,-0.058563232421875,-0.34552001953125
1728303251808436200,7.212436279296875,-0.9897003173828125,-0.029571533203125,-0.2686614990234375
1728303251818496300,7.222496337890625,-1.001373291015625,-0.0250701904296875,-0.327117919921875
1728303251828556000,7.23255615234375,-1.025054931640625,-0.0353546142578125,-0.31121826171875
1728303251838616000,7.242615966796875,-1.0117645263671875,-0.05902099609375,-0.310760498046875
1728303251848676000,7.252676025390625,-1.000091552734375,-0.00189208984375,-0.331085205078125
1728303251858736000,7.262736083984375,-1.01007080078125,-0.041290283203125,-0.3570098876953125
1728303251868796200,7.272796142578125,-0.9715576171875,-0.0405426025390625,-0.31072998046875
1728303251878856200,7.282856201171875,-1,-0.0151214599609375,-0.3551483154296875
1728303251888916000,7.292916015625,-0.9468994140625,-0.0347137451171875,-0.318328857421875
1728303251898976000,7.30297607421875,-1.0192718505859375,0.0255584716796875,-0.3163299560546875
1728303251909036000,7.3130361328125,-1.0350494384765625,-0.0030670166015625,-0.3526611328125
1728303251919096300,7.323096435546875,-1.0180206298828125,-0.0401611328125,-0.3643646240234375
1728303251929156000,7.333156005859375,-1.07049560546875,0.0032806396484375,-0.31884765625
1728303251939216100,7.343216064453125,-1.035369873046875,0.025726318359375,-0.3871917724609375
1728303251949276200,7.353276123046875,-1.026885986328125,-0.02496337890625,-0.3733978271484375
1728303251959336000,7.3633359375,-1.0315704345703125,-0.0150299072265625,-0.3584442138671875
1728303251969396200,7.373396240234375,-1.016937255859375,0.028076171875,-0.3617706298828125
1728303251979456300,7.383456298828125,-0.9923553466796875,0.007171630859375,-0.357269287109375
1728303251989516000,7.39351611328125,-1.0244293212890625,-0.0027618408203125,-0.3592987060546875
1728303251999576000,7.403576171875,-1.0172576904296875,0.0160980224609375,-0.324432373046875
1728303252009636000,7.413635986328125,-0.9945831298828125,0.000152587890625,-0.3668212890625
1728303252019696000,7.423696044921875,-0.9659423828125,-0.00701904296875,-0.3338165283203125
1728303252029756200,7.433756103515625,-0.934478759765625,-0.0177764892578125,-0.3086700439453125
1728303252039816200,7.443816162109375,-0.9716949462890625,0.0442352294921875,-0.2810516357421875
1728303252049876200,7.453876220703125,-0.96124267578125,-0.0090179443359375,-0.2911529541015625
1728303252059936000,7.46393603515625,-0.9601898193359375,-0.0124969482421875,-0.2703704833984375
1728303252069996000,7.47399609375,-0.92877197265625,-0.006256103515625,-0.239166259765625
1728303252080056000,7.48405615234375,-0.9592437744140625,0.0073699951171875,-0.2376861572265625
1728303252090116000,7.4941162109375,-0.94134521484375,-0.012298583984375,-0.241668701171875
1728303252100176100,7.504176025390625,-0.9537353515625,-0.03497314453125,-0.230255126953125
1728303252110236200,7.514236083984375,-0.94110107421875,0.001220703125,-0.2408599853515625
1728303252120296200,7.524296142578125,-0.9630126953125,-0.0194549560546875,-0.2364501953125
1728303252130356000,7.53435595703125,-0.9300384521484375,-0.015899658203125,-0.250885009765625
1728303252140416300,7.544416259765625,-0.9538421630859375,-0.009979248046875,-0.2380218505859375
1728303252150476300,7.554476318359375,-0.9696807861328125,-0.0179443359375,-0.2398529052734375
1728303252160536000,7.5645361328125,-0.9686737060546875,0.01702880859375,-0.263946533203125
1728303252170596000,7.57459619140625,-0.97802734375,-0.026336669921875,-0.2291259765625
1728303252180656000,7.58465625,-1.002288818359375,-0.0116424560546875,-0.269683837890625
1728303252190716000,7.5947158203125,-1.0269775390625,-0.026824951171875,-0.23687744140625
1728303252200776200,7.604776123046875,-0.9978179931640625,0.00048828125,-0.2622528076171875
1728303252210836200,7.614836181640625,-0.9835662841796875,-0.006072998046875,-0.27801513671875
1728303252220896300,7.624896240234375,-1.0253448486328125,-0.029571533203125,-0.2646331787109375
1728303252230956000,7.6349560546875,-1.0035552978515625,0.01116943359375,-0.27032470703125
1728303252241017000,7.64501708984375,-1.00347900390625,-0.0057525634765625,-0.269683837890625
1728303252251076000,7.655076171875,-0.994842529296875,-0.022674560546875,-0.2713165283203125
1728303252261136100,7.66513623046875,-1.0339813232421875,-0.01068115234375,-0.2577667236328125
1728303252271196200,7.675196044921875,-0.990020751953125,-0.004486083984375,-0.2446746826171875
1728303252281256200,7.685256103515625,-0.994720458984375,-0.011962890625,-0.289947509765625
1728303252291316000,7.69531591796875,-1.024810791015625,-0.0063629150390625,-0.219451904296875
1728303252301376000,7.7053759765625,-0.988494873046875,0.0170440673828125,-0.279144287109375
1728303252311436300,7.715436279296875,-0.9995574951171875,0.0025634765625,-0.247467041015625
1728303252321496000,7.72549609375,-1.000946044921875,-0.0244903564453125,-0.2795562744140625
1728303252331556000,7.73555615234375,-0.99334716796875,0.0013885498046875,-0.2506103515625
1728303252341617200,7.7456171875,-0.960418701171875,0.0020751953125,-0.2750091552734375
1728303252351676200,7.75567626953125,-0.98809814453125,0.0151824951171875,-0.2640838623046875
1728303252361737000,7.765737060546875,-0.9581451416015625,-0.0395660400390625,-0.2847137451171875
1728303252371797000,7.775796875,-0.9464263916015625,0.0103912353515625,-0.2601165771484375
1728303252381857300,7.785857177734375,-0.917449951171875,0.0106048583984375,-0.29107666015625
1728303252391917300,7.795917236328125,-0.940765380859375,-0.0150299072265625,-0.264007568359375
1728303252401977000,7.80597705078125,-0.9160919189453125,-0.002655029296875,-0.2694244384765625
1728303252412037000,7.816037109375,-0.9437255859375,-0.01971435546875,-0.28704833984375
1728303252422097200,7.82609716796875,-0.907562255859375,0.0107879638671875,-0.2819061279296875
1728303252432157000,7.836156982421875,-0.9229278564453125,-0.018890380859375,-0.27471923828125
1728303252442217200,7.84621728515625,-0.912872314453125,-0.0154571533203125,-0.28643798828125
1728303252452277200,7.85627734375,-0.9371185302734375,0.00262451171875,-0.2854461669921875
1728303252462337000,7.8663369140625,-0.9296722412109375,-0.0155181884765625,-0.280853271484375
1728303252472397000,7.87639697265625,-0.90777587890625,-0.0254974365234375,-0.29205322265625
1728303252482456800,7.886456787109375,-0.939056396484375,-0.0119171142578125,-0.2720184326171875
1728303252492517000,7.89651708984375,-0.9554901123046875,-0.001251220703125,-0.271209716796875
1728303252502577200,7.9065771484375,-0.9541778564453125,-0.01611328125,-0.269927978515625
1728303252512637000,7.916636962890625,-0.9674530029296875,-0.0435943603515625,-0.2834930419921875
1728303252522696000,7.926696044921875,-0.9706878662109375,0.0088958740234375,-0.2746429443359375
1728303252532756000,7.936755859375,-0.987091064453125,-0.0205841064453125,-0.2864227294921875
1728303252542816000,7.94681591796875,-0.9678955078125,-0.0344390869140625,-0.270172119140625
1728303252552876000,7.9568759765625,-0.9956512451171875,-0.0283203125,-0.3039398193359375
1728303252562936000,7.96693603515625,-1.0150299072265625,-0.023284912109375,-0.2600860595703125
1728303252572995800,7.976995849609375,-0.992279052734375,-0.0086517333984375,-0.27581787109375
1728303252583056000,7.987055908203125,-1.0125579833984375,-0.0647735595703125,-0.2693634033203125
1728303252593116200,7.9971162109375,-1.0137939453125,-0.021728515625,-0.2695465087890625
1728303252603176200,8.00717626953125,-1.021331787109375,-0.02557373046875,-0.268768310546875
1728303252613236000,8.017236083984375,-0.9984588623046875,-0.0531463623046875,-0.2715911865234375
1728303252623296000,8.0272958984375,-1.0229949951171875,-0.0383453369140625,-0.285736083984375
1728303252633356000,8.03735595703125,-1.03106689453125,-0.038970947265625,-0.2649078369140625
1728303252643415800,8.047415771484374,-1.006683349609375,-0.0453338623046875,-0.2899932861328125
1728303252653476000,8.05747607421875,-1.0137786865234375,-0.040191650390625,-0.2802886962890625
1728303252663536000,8.0675361328125,-1.024993896484375,-0.05712890625,-0.275360107421875
1728303252673596000,8.077595947265625,-1.00897216796875,-0.0475616455078125,-0.2761688232421875
1728303252683656000,8.087656005859374,-1.004638671875,-0.0485076904296875,-0.2862396240234375
1728303252693716000,8.097716064453126,-1.004119873046875,-0.051666259765625,-0.264862060546875
1728303252703776000,8.10777587890625,-1.0055694580078125,-0.0498504638671875,-0.277587890625
1728303252713836000,8.1178359375,-0.995513916015625,-0.048431396484375,-0.250518798828125
1728303252723896000,8.12789599609375,-0.9773101806640625,-0.0494537353515625,-0.2758331298828125
1728303252733956000,8.1379560546875,-1.0180511474609375,-0.051788330078125,-0.25433349609375
1728303252744016000,8.148015869140625,-0.9725341796875,-0.0483856201171875,-0.2519073486328125
1728303252754076000,8.158075927734375,-0.9715118408203125,-0.04925537109375,-0.269378662109375
1728303252764136200,8.16813623046875,-1.013336181640625,-0.0586700439453125,-0.2657318115234375
1728303252774196000,8.178196044921876,-0.9845733642578125,-0.0376129150390625,-0.2467193603515625
1728303252784256000,8.188256103515625,-0.95452880859375,-0.0722808837890625,-0.2801666259765625
1728303252794316000,8.19831591796875,-0.9986114501953125,-0.0404205322265625,-0.2377166748046875
1728303252804375800,8.208375732421874,-0.971649169921875,-0.0710601806640625,-0.2762451171875
1728303252814435800,8.218435791015626,-0.9635162353515625,-0.055816650390625,-0.2336883544921875
1728303252824496000,8.22849609375,-0.9664459228515625,-0.0690155029296875,-0.257415771484375
1728303252834556200,8.23855615234375,-0.9816131591796875,-0.0762176513671875,-0.2428436279296875
1728303252844616000,8.248615966796875,-0.9454193115234375,-0.0767974853515625,-0.236724853515625
1728303252854676000,8.258676025390624,-0.9409332275390625,-0.0662841796875,-0.2386322021484375
1728303252864736000,8.268736083984376,-0.97064208984375,-0.0899658203125,-0.23553466796875
1728303252874796000,8.278796142578125,-0.9537506103515625,-0.0899810791015625,-0.2355804443359375
1728303252884856000,8.28885595703125,-0.970123291015625,-0.0990142822265625,-0.23822021484375
1728303252894916000,8.298916015625,-0.9602813720703125,-0.1050262451171875,-0.220916748046875
1728303252904976000,8.308975830078126,-0.960784912109375,-0.09649658203125,-0.2320709228515625
1728303252915036000,8.319035888671875,-0.9564208984375,-0.1241607666015625,-0.2255706787109375
1728303252925096000,8.329095947265625,-0.9612274169921875,-0.11138916015625,-0.21124267578125
1728303252935156200,8.33915625,-0.939727783203125,-0.122100830078125,-0.2307586669921875
1728303252945216000,8.349216064453126,-0.9512481689453125,-0.1139373779296875,-0.208984375
1728303252955276000,8.359276123046875,-0.9313201904296875,-0.1220550537109375,-0.2206573486328125
1728303252965336000,8.369336181640625,-0.96160888671875,-0.129669189453125,-0.221649169921875
1728303252975395800,8.379395751953124,-0.9449005126953125,-0.117156982421875,-0.208953857421875
1728303252985455900,8.389455810546876,-0.95452880859375,-0.1291351318359375,-0.2232513427734375
1728303252995516200,8.39951611328125,-0.9538726806640625,-0.12017822265625,-0.223388671875
1728303253005576000,8.409575927734375,-0.977386474609375,-0.1280517578125,-0.2011871337890625
1728303253015636000,8.419635986328124,-0.9611053466796875,-0.1143646240234375,-0.2232818603515625
1728303253025696000,8.429696044921876,-0.964019775390625,-0.1361541748046875,-0.2197265625
1728303253035756000,8.439756103515625,-0.980499267578125,-0.1067047119140625,-0.190093994140625
1728303253045816000,8.449816162109375,-0.9847259521484375,-0.1193695068359375,-0.2262420654296875
1728303253055876000,8.4598759765625,-0.976470947265625,-0.128692626953125,-0.1997833251953125
1728303253065936100,8.46993603515625,-0.96087646484375,-0.114654541015625,-0.210845947265625
1728303253075996000,8.479995849609375,-0.961700439453125,-0.1032257080078125,-0.2215576171875
1728303253086056000,8.490055908203125,-0.9688720703125,-0.110992431640625,-0.2049713134765625
1728303253096116000,8.500115966796875,-0.96044921875,-0.11260986328125,-0.2107696533203125
1728303253106176000,8.510176025390624,-0.9689178466796875,-0.100799560546875,-0.2139739990234375
1728303253116236800,8.52023681640625,-0.9869842529296875,-0.091949462890625,-0.1960296630859375
1728303253126297000,8.530297119140625,-0.964111328125,-0.117431640625,-0.2081298828125
1728303253136357000,8.540357177734375,-0.9770355224609375,-0.099151611328125,-0.1928863525390625
1728303253146417000,8.5504169921875,-0.97564697265625,-0.110137939453125,-0.1859130859375
1728303253156477000,8.560476806640626,-0.9751739501953125,-0.104248046875,-0.1797943115234375
1728303253166537000,8.570536865234375,-0.987274169921875,-0.1147613525390625,-0.1754913330078125
1728303253176597000,8.580596923828125,-0.989013671875,-0.1039886474609375,-0.143402099609375
1728303253186657000,8.590656982421875,-0.9714202880859375,-0.1249542236328125,-0.1678466796875
1728303253196717000,8.600717041015624,-1.010467529296875,-0.122955322265625,-0.15399169921875
1728303253206777000,8.610777099609376,-0.9930572509765625,-0.1244659423828125,-0.1385955810546875
1728303253216836900,8.6208369140625,-1.0061492919921875,-0.1236419677734375,-0.15234375
1728303253226897000,8.63089697265625,-1.0084686279296875,-0.1457672119140625,-0.14556884765625
1728303253236957200,8.640957275390624,-1.0341949462890625,-0.159454345703125,-0.1337890625
1728303253247017000,8.651016845703126,-1.016937255859375,-0.1438446044921875,-0.1286163330078125
1728303253257077000,8.661076904296875,-1.0019683837890625,-0.1713409423828125,-0.134613037109375
1728303253267137000,8.671136962890625,-0.996826171875,-0.1653900146484375,-0.120758056640625
1728303253277197000,8.681197021484374,-1.0062103271484375,-0.1614837646484375,-0.1174774169921875
1728303253287256800,8.6912568359375,-0.97674560546875,-0.187652587890625,-0.1524505615234375
1728303253297317000,8.701317138671875,-1.0326995849609375,-0.18658447265625,-0.1083984375
1728303253307377200,8.711377197265625,-0.980072021484375,-0.1847076416015625,-0.1302490234375
1728303253317437000,8.72143701171875,-0.9931640625,-0.1794586181640625,-0.1511077880859375
1728303253327497000,8.7314970703125,-0.9926910400390625,-0.19708251953125,-0.1366729736328125
1728303253337557000,8.741556884765625,-0.98724365234375,-0.1915435791015625,-0.136871337890625
1728303253347617000,8.751616943359375,-0.9694976806640625,-0.1853485107421875,-0.148101806640625
1728303253357677000,8.761677001953124,-0.9929656982421875,-0.1776275634765625,-0.1308746337890625
1728303253367737000,8.771737060546876,-0.982391357421875,-0.1840972900390625,-0.1451263427734375
1728303253377796900,8.781796875,-0.984832763671875,-0.169525146484375,-0.149932861328125
1728303253387857000,8.79185693359375,-0.994537353515625,-0.18634033203125,-0.141937255859375
1728303253397917000,8.8019169921875,-0.96893310546875,-0.1711578369140625,-0.1500701904296875
1728303253407977200,8.811977294921874,-0.986572265625,-0.160247802734375,-0.152801513671875
1728303253418037000,8.822037109375,-0.9934234619140625,-0.1624908447265625,-0.14886474609375
1728303253428097000,8.832096923828125,-0.9700469970703125,-0.168975830078125,-0.149169921875
1728303253438157000,8.842156982421875,-0.9471435546875,-0.1505279541015625,-0.143218994140625
1728303253448216800,8.852216796875,-0.9764556884765625,-0.1440582275390625,-0.1514434814453125
1728303253458276900,8.86227685546875,-0.984588623046875,-0.1454315185546875,-0.130950927734375
1728303253468337200,8.872337158203125,-0.967529296875,-0.152862548828125,-0.1215057373046875
1728303253478397200,8.882397216796875,-0.9405364990234375,-0.1305999755859375,-0.1416015625
1728303253488457200,8.892457275390624,-0.9830169677734375,-0.136566162109375,-0.1165618896484375
1728303253498517000,8.90251708984375,-0.9720306396484375,-0.1482696533203125,-0.1037139892578125
1728303253508577000,8.912576904296875,-0.944854736328125,-0.127105712890625,-0.1170196533203125
1728303253518637000,8.922636962890625,-0.971160888671875,-0.128997802734375,-0.0817108154296875
1728303253528697000,8.932697021484374,-0.965301513671875,-0.150390625,-0.1049652099609375
1728303253538757000,8.942757080078126,-0.9550628662109375,-0.135223388671875,-0.0903472900390625
1728303253548817200,8.952817138671875,-0.963470458984375,-0.1269073486328125,-0.1028289794921875
1728303253558877200,8.962877197265625,-0.9977569580078125,-0.1366729736328125,-0.08453369140625
1728303253568937000,8.97293701171875,-0.979736328125,-0.133087158203125,-0.1090240478515625
1728303253578997200,8.982997314453126,-0.97747802734375,-0.1443328857421875,-0.1026153564453125
1728303253589057300,8.993057373046875,-0.9986419677734375,-0.1400909423828125,-0.0894012451171875
1728303253599117000,9.003116943359375,-1.0064697265625,-0.1524658203125,-0.086883544921875
1728303253609177000,9.013177001953125,-0.99346923828125,-0.1483612060546875,-0.086578369140625
1728303253619237000,9.023237060546874,-1.0105438232421875,-0.155120849609375,-0.0749053955078125
1728303253629297000,9.033296875,-1.01513671875,-0.1563720703125,-0.076080322265625
1728303253639357200,9.043357177734375,-1.0147552490234375,-0.1578369140625,-0.072723388671875
1728303253649417200,9.053417236328125,-1.0037994384765625,-0.17828369140625,-0.070892333984375
1728303253659477200,9.063477294921874,-1.0047454833984375,-0.1876373291015625,-0.0538330078125
1728303253669537000,9.073537109375,-1.0113983154296875,-0.170684814453125,-0.0527496337890625
1728303253679597000,9.08359716796875,-0.986114501953125,-0.1764068603515625,-0.0289459228515625
1728303253689657000,9.093656982421875,-0.985260009765625,-0.20404052734375,-0.0440521240234375
1728303253699717000,9.103717041015624,-0.9710693359375,-0.194580078125,-0.05474853515625
1728303253709777200,9.113777099609376,-0.9964599609375,-0.1871490478515625,-0.0389556884765625
1728303253719837200,9.123837158203125,-0.964141845703125,-0.1893768310546875,-0.0493011474609375
1728303253729897000,9.13389697265625,-0.9669647216796875,-0.1922454833984375,-0.0685882568359375
1728303253739957000,9.14395703125,-0.98077392578125,-0.2043304443359375,-0.070098876953125
1728303253750017300,9.154017333984376,-0.983734130859375,-0.208282470703125,-0.0462646484375
1728303253760077300,9.164077392578125,-0.98126220703125,-0.1815032958984375,-0.0665283203125
1728303253770137000,9.17413720703125,-0.9788970947265625,-0.1928253173828125,-0.0492401123046875
1728303253780197000,9.184197021484374,-0.967864990234375,-0.18963623046875,-0.0411529541015625
1728303253790257200,9.194257080078126,-0.98828125,-0.184295654296875,-0.0504913330078125
1728303253800317000,9.20431689453125,-1.0139923095703125,-0.17120361328125,-0.0457305908203125
1728303253810377200,9.214377197265625,-0.984161376953125,-0.184722900390625,-0.046966552734375
1728303253820437200,9.224437255859375,-0.9612579345703125,-0.1825103759765625,-0.0628204345703125
1728303253830497000,9.2344970703125,-1.0029754638671875,-0.156890869140625,-0.0640869140625
1728303253840557000,9.24455712890625,-0.9953460693359375,-0.1596832275390625,-0.0738525390625
1728303253850617000,9.2546171875,-0.9821319580078125,-0.153045654296875,-0.0708770751953125
1728303253860677000,9.264677001953125,-0.982879638671875,-0.142303466796875,-0.0728607177734375
1728303253870737200,9.274737060546874,-0.97320556640625,-0.145782470703125,-0.0727386474609375
1728303253880797200,9.284797119140626,-0.982757568359375,-0.1364898681640625,-0.068359375
1728303253890857200,9.294857177734375,-0.9935150146484375,-0.104888916015625,-0.0555877685546875
1728303253900917000,9.3049169921875,-0.9706878662109375,-0.1098175048828125,-0.076416015625
1728303253910977000,9.31497705078125,-0.9641876220703125,-0.1222076416015625,-0.0666351318359375
1728303253921037300,9.325037353515626,-0.988494873046875,-0.0845794677734375,-0.0650482177734375
1728303253931097000,9.33509716796875,-0.98419189453125,-0.070556640625,-0.059539794921875
1728303253941157000,9.3451572265625,-0.9986724853515625,-0.0831756591796875,-0.0816650390625
1728303253951217200,9.355217041015624,-0.980499267578125,-0.0784759521484375,-0.0883331298828125
1728303253961277200,9.365277099609376,-0.9669342041015625,-0.0526885986328125,-0.0623626708984375
1728303253971337000,9.3753369140625,-0.9900665283203125,-0.04132080078125,-0.0604248046875
1728303253981397200,9.385397216796875,-0.993804931640625,-0.0516357421875,-0.0870208740234375
1728303253991457300,9.395457275390624,-0.9745635986328125,-0.0274810791015625,-0.051513671875
1728303254001517000,9.40551708984375,-0.996551513671875,0.0181427001953125,-0.04522705078125
1728303254011577000,9.4155771484375,-0.9509429931640625,-0.0260467529296875,-0.052032470703125
1728303254021637000,9.42563720703125,-0.986663818359375,-0.0340118408203125,-0.045196533203125
1728303254031697200,9.435697265625,-0.9731903076171875,0.015655517578125,-0.0319366455078125
1728303254041757200,9.445757080078126,-1.0328216552734375,0.022674560546875,-0.0339813232421875
1728303254051817200,9.455817138671875,-1.004119873046875,-0.022064208984375,-0.0492401123046875
1728303254061877000,9.465876953125,-0.9706573486328125,0.0117950439453125,-0.042144775390625
1728303254071937000,9.47593701171875,-0.9800567626953125,0.0710296630859375,-0.0236358642578125
1728303254081997000,9.4859970703125,-1.03741455078125,0.04156494140625,-0.0362548828125
1728303254092057300,9.496057373046876,-1.00445556640625,0.0032958984375,-0.031890869140625
1728303254102117000,9.5061171875,-0.9984893798828125,0.0187530517578125,-0.0311279296875
1728303254112177200,9.51617724609375,-1.020172119140625,-0.0007476806640625,-0.0104217529296875
1728303254122237200,9.5262373046875,-0.9942626953125,-0.0247802734375,-0.054656982421875
1728303254132297000,9.536296875,-1.007537841796875,-0.0177764892578125,-0.018035888671875
1728303254142357000,9.54635693359375,-1.04656982421875,0.0106964111328125,-0.0115203857421875
1728303254152417300,9.556417236328125,-0.998565673828125,-0.0059051513671875,-0.0391387939453125
1728303254162477000,9.56647705078125,-1.0215301513671875,-0.017242431640625,-0.0182342529296875
1728303254172537000,9.576537109375,-1.006317138671875,-0.0121002197265625,-0.023406982421875
1728303254182597000,9.58659716796875,-1.0006561279296875,0.0086822509765625,-0.018096923828125
1728303254192657200,9.5966572265625,-1.0055084228515625,-0.0266876220703125,-0.020111083984375
1728303254202717200,9.60671728515625,-0.934417724609375,-0.027008056640625,-0.0353546142578125
1728303254212777200,9.616777099609376,-0.991729736328125,0.01702880859375,-0.0118865966796875
1728303254222837200,9.626837158203125,-0.962677001953125,-0.0292816162109375,-0.0416259765625
1728303254232897000,9.63689697265625,-0.9665679931640625,-0.0191497802734375,-0.038726806640625
1728303254242957000,9.64695703125,-0.96160888671875,0.00762939453125,-0.02740478515625
1728303254253017000,9.65701708984375,-0.9587554931640625,-0.00482177734375,-0.046112060546875
1728303254263077000,9.6670771484375,-0.967987060546875,-0.0012359619140625,-0.0453643798828125
1728303254273137200,9.67713720703125,-0.955810546875,-0.027130126953125,-0.0342864990234375
1728303254283197200,9.687197265625,-0.9361114501953125,-0.0037841796875,-0.0553741455078125
1728303254293257200,9.69725732421875,-0.9726715087890625,0.00177001953125,-0.031036376953125
1728303254303317000,9.70731689453125,-0.9395904541015625,-0.01849365234375,-0.0574493408203125
1728303254313377000,9.717376953125,-0.9218292236328125,-0.00048828125,-0.0637969970703125
1728303254323437300,9.727437255859375,-0.9962005615234375,-0.01763916015625,-0.0577392578125
1728303254333497000,9.7374970703125,-0.9606475830078125,-0.0237579345703125,-0.0758514404296875
1728303254343557000,9.74755712890625,-0.990447998046875,0.006317138671875,-0.06939697265625
1728303254353617200,9.7576171875,-0.9426116943359375,-0.025726318359375,-0.070831298828125
1728303254363677000,9.767677001953125,-0.975189208984375,0.000579833984375,-0.06707763671875
1728303254373737200,9.7777373046875,-1.01312255859375,-0.01727294921875,-0.0731658935546875
1728303254383797200,9.78779736328125,-0.96490478515625,-0.0028076171875,-0.0723724365234375
1728303254393857300,9.797857177734375,-1.0289306640625,-0.0093994140625,-0.05078125
1728303254403917000,9.8079169921875,-0.9660491943359375,-0.00482177734375,-0.081756591796875
1728303254413977000,9.81797705078125,-1.00323486328125,-0.010772705078125,-0.0476531982421875
1728303254424037000,9.828037109375,-1.0050048828125,-0.0295562744140625,-0.074493408203125
1728303254434097200,9.83809716796875,-1.0207977294921875,0.010833740234375,-0.0691680908203125
1728303254444157200,9.8481572265625,-1.04217529296875,-0.0105743408203125,-0.061248779296875
1728303254454217200,9.85821728515625,-0.9731292724609375,-0.036285400390625,-0.0654144287109375
1728303254464277000,9.868277099609376,-1.0252838134765625,0.0035247802734375,-0.0543365478515625
1728303254474340600,9.878340576171874,-0.9779052734375,0.0103759765625,-0.0495147705078125
1728303254484400600,9.888400634765626,-1.011962890625,-0.011749267578125,-0.0455322265625
1728303254494461000,9.8984609375,-1.00970458984375,-0.0418243408203125,-0.0430755615234375
1728303254504520700,9.908520751953125,-0.9843597412109375,0.0168304443359375,-0.0457000732421875
1728303254514580700,9.918580810546874,-1.0212554931640625,-0.0239105224609375,-0.0313873291015625
1728303254524640800,9.928640869140626,-0.986236572265625,-0.004852294921875,-0.0581817626953125
1728303254534700800,9.93870068359375,-0.969207763671875,-0.0201263427734375,-0.04052734375
1728303254544760800,9.9487607421875,-0.9738922119140625,0.01513671875,-0.035797119140625
1728303254554820900,9.95882080078125,-1.020660400390625,-0.0104522705078125,-0.0367279052734375
1728303254564881000,9.968880859375,-0.9500274658203125,-0.0127105712890625,-0.0619354248046875
1728303254574940700,9.978940673828125,-1.0099945068359375,-0.0073699951171875,-0.0183868408203125
1728303254585000700,9.989000732421875,-1.009796142578125,-0.00030517578125,-0.04986572265625
1728303254595060700,9.999060791015625,-0.9504852294921875,0.0125579833984375,-0.0336761474609375
1728303254605120800,10.009120849609374,-0.999542236328125,-0.0067596435546875,-0.03485107421875
1728303254615180800,10.019180908203126,-0.9911041259765625,0.0103759765625,-0.0353546142578125
1728303254625240800,10.02924072265625,-1.033355712890625,0.0040435791015625,-0.018524169921875
1728303254635300600,10.039300537109375,-1.00299072265625,0.00640869140625,-0.0326385498046875
1728303254645360600,10.049360595703124,-1.011627197265625,-0.036163330078125,-0.0126953125
1728303254655420700,10.059420654296876,-0.9935760498046875,0.0143890380859375,-0.0253753662109375
1728303254665481000,10.06948095703125,-1.0192108154296875,-0.008636474609375,-0.0074920654296875
1728303254675540700,10.079540771484375,-0.9880523681640625,-0.0154266357421875,-0.0328826904296875
1728303254685600800,10.089600830078124,-1.01617431640625,0.0058746337890625,-0.004486083984375
1728303254695660800,10.099660888671876,-0.9908294677734375,-0.0066680908203125,-0.03399658203125
1728303254705720600,10.109720458984375,-1.0153350830078125,0.0046539306640625,-0.0319061279296875
1728303254715780600,10.119780517578125,-1.0041961669921875,-0.0193023681640625,-0.0272674560546875
1728303254725841000,10.1298408203125,-0.9987335205078125,-0.0012054443359375,-0.0289154052734375
1728303254735900700,10.139900634765626,-1.00054931640625,0.000762939453125,-0.0340576171875
1728303254745960700,10.149960693359375,-0.9584808349609375,0.0033111572265625,-0.039947509765625
1728303254756020700,10.160020751953125,-1.00384521484375,0.0037689208984375,-0.0273895263671875
1728303254766080800,10.170080810546875,-0.97216796875,-0.006591796875,-0.0428619384765625
1728303254776140800,10.180140869140626,-1.0190277099609375,0.0039825439453125,-0.0324249267578125
1728303254786200800,10.190200927734375,-0.9638671875,-0.019073486328125,-0.0455169677734375
1728303254796260900,10.2002607421875,-1.013092041015625,0.0002593994140625,-0.0339202880859375
1728303254806320600,10.210320556640625,-0.9843597412109375,-0.008209228515625,-0.0488739013671875
1728303254816380700,10.220380615234374,-0.9814300537109375,-0.011810302734375,-0.051239013671875
1728303254826440700,10.230440673828125,-0.975738525390625,-0.0005645751953125,-0.0526123046875
1728303254836500700,10.240500732421875,-1.0078887939453125,-0.00067138671875,-0.0435333251953125
1728303254846560800,10.250560791015625,-0.95184326171875,-0.006317138671875,-0.067108154296875
1728303254856620800,10.260620849609374,-1.006072998046875,0.0086212158203125,-0.0419158935546875
1728303254866680800,10.270680908203126,-0.9641876220703125,-0.0040130615234375,-0.062530517578125
1728303254876740600,10.28074072265625,-0.9712066650390625,-0.0168914794921875,-0.0647735595703125
1728303254886800600,10.290800537109375,-0.973480224609375,0.00299072265625,-0.06610107421875
1728303254896861000,10.30086083984375,-0.98577880859375,-0.01214599609375,-0.0515899658203125
1728303254906920700,10.310920654296876,-0.9677734375,-0.002593994140625,-0.0740814208984375
1728303254916980700,10.320980712890625,-0.992462158203125,-0.0063629150390625,-0.061737060546875
1728303254927040800,10.331040771484375,-0.9679412841796875,-0.0177459716796875,-0.0623321533203125
1728303254937100500,10.3411005859375,-0.9790496826171875,0.0094451904296875,-0.06036376953125
1728303254947160800,10.351160888671876,-0.97650146484375,-0.0129547119140625,-0.0660858154296875
1728303254957220900,10.361220947265625,-0.9705657958984375,-0.0049591064453125,-0.0599212646484375
1728303254967281000,10.371281005859375,-0.9661865234375,-0.005889892578125,-0.07080078125
1728303254977340700,10.381340576171874,-0.9759674072265625,0.00042724609375,-0.069122314453125
1728303254987400700,10.391400634765626,-0.97308349609375,-0.0261077880859375,-0.0553741455078125
1728303254997460700,10.401460693359375,-0.957763671875,-0.0044097900390625,-0.066436767578125
1728303255007520800,10.411520751953125,-0.9766693115234375,-0.0098876953125,-0.05615234375
1728303255017580800,10.421580810546875,-0.971923828125,0.002655029296875,-0.0522918701171875
1728303255027640800,10.431640869140624,-0.98577880859375,-0.0264129638671875,-0.0403289794921875
1728303255037700600,10.44170068359375,-0.98724365234375,0.01593017578125,-0.0512542724609375
1728303255047760600,10.4517607421875,-0.9989013671875,-0.027130126953125,-0.0288238525390625
1728303255057820700,10.461820556640625,-0.9989471435546875,0.0040740966796875,-0.044525146484375
1728303255067881000,10.471880859375,-1.0054931640625,-0.0075225830078125,-0.0331268310546875
1728303255077940700,10.481940673828126,-0.98260498046875,0.000274658203125,-0.0451812744140625
1728303255088000800,10.492000732421875,-1.0264892578125,-0.001739501953125,-0.029449462890625
1728303255098060800,10.502060791015625,-1.0000457763671875,-0.0290679931640625,-0.053436279296875
1728303255108120600,10.51212060546875,-1.032562255859375,0.0114898681640625,-0.009674072265625
1728303255118180900,10.522180908203126,-1.00128173828125,-0.0147857666015625,-0.0425262451171875
1728303255128241000,10.532240966796875,-1.0069122314453125,-0.0048828125,-0.02813720703125
1728303255138300700,10.54230078125,-1.0031280517578125,-0.0118255615234375,-0.0357208251953125
1728303255148360700,10.552360595703124,-1.0112457275390625,0.007568359375,-0.0086517333984375
1728303255158420700,10.562420654296876,-1.01324462890625,-0.0121307373046875,-0.0276947021484375
1728303255168480800,10.572480712890625,-1.0177459716796875,0.0118560791015625,-0.020599365234375
1728303255178540800,10.582540771484375,-0.998260498046875,-0.024627685546875,-0.0121307373046875
1728303255188600800,10.592600830078124,-0.983795166015625,-0.0068817138671875,-0.0278778076171875
1728303255198660900,10.602660888671876,-1.018707275390625,-0.00103759765625,-0.000823974609375
1728303255208720600,10.612720703125,-0.962738037109375,-0.0157012939453125,-0.03564453125
1728303255218780700,10.62278076171875,-0.9924774169921875,-0.0055389404296875,-0.006683349609375
1728303255228840700,10.6328408203125,-0.987060546875,-0.0066986083984375,-0.02166748046875
1728303255238900700,10.642900634765626,-0.9964599609375,0.001861572265625,-0.0123443603515625
1728303255248960800,10.652960693359375,-0.9613800048828125,-0.0098724365234375,-0.0296173095703125
1728303255259020800,10.663020751953125,-1.0102081298828125,0.0091400146484375,-0.0108489990234375
1728303255269080600,10.67308056640625,-0.9877777099609375,-0.0222320556640625,-0.032012939453125
1728303255279140600,10.683140625,-0.99267578125,0.0065460205078125,-0.021148681640625
1728303255289201000,10.693200927734376,-1.0000762939453125,-0.0019683837890625,-0.0294342041015625
1728303255299261000,10.703260986328125,-0.973388671875,-0.0177154541015625,-0.0428314208984375
1728303255309320700,10.71332080078125,-1.001983642578125,-0.0018310546875,-0.0245513916015625
1728303255319380700,10.723380615234374,-0.9900360107421875,-0.02606201171875,-0.0328521728515625
1728303255329440800,10.733440673828126,-1.00018310546875,0.0001678466796875,-0.0302581787109375
1728303255339500500,10.74350048828125,-0.9921722412109375,-0.0229644775390625,-0.039398193359375
1728303255349560800,10.753560791015625,-1.0160369873046875,-0.0365753173828125,-0.038818359375
1728303255359620900,10.763620849609374,-0.99676513671875,-0.12255859375,-0.0262451171875
1728303255369680600,10.7736806640625,-0.990966796875,-0.0203704833984375,-0.0311126708984375
1728303255379740700,10.78374072265625,-0.9963836669921875,0.03326416015625,-0.03521728515625
1728303255389800700,10.79380078125,-0.98858642578125,-0.015716552734375,-0.0366973876953125
1728303255399860700,10.80386083984375,-1.0279083251953125,-0.03082275390625,-0.020904541015625
1728303255409920800,10.813920654296876,-0.9497833251953125,-0.0184173583984375,-0.0304107666015625
1728303255419980800,10.823980712890625,-0.95526123046875,0.017120361328125,-0.038818359375
1728303255430040800,10.834040771484375,-0.9835968017578125,-0.0819854736328125,-0.0468292236328125
1728303255440100600,10.8441005859375,-1.0172576904296875,-0.1245880126953125,-0.0257720947265625
1728303255450160600,10.85416064453125,-0.9886627197265625,-0.0130157470703125,-0.0259552001953125
1728303255460221000,10.864220947265625,-0.9463348388671875,0.01361083984375,-0.0598297119140625
1728303255470280700,10.87428076171875,-1.010040283203125,-0.01959228515625,-0.0311737060546875
1728303255480336400,10.88433642578125,-1.0103302001953125,-0.0604400634765625,-0.0225830078125
1728303255490396200,10.894396240234375,-0.961578369140625,-0.025146484375,-0.0487060546875
1728303255500456400,10.90445654296875,-0.9564208984375,-0.0651092529296875,-0.04034423828125
1728303255510516500,10.9145166015625,-0.9742584228515625,-0.120513916015625,-0.052032470703125
1728303255520576500,10.924576416015626,-1.0144500732421875,-0.0750579833984375,-0.034637451171875
1728303255530636300,10.93463623046875,-0.988983154296875,-0.042388916015625,-0.058929443359375
1728303255540696300,10.9446962890625,-0.9743194580078125,-0.041015625,-0.054779052734375
1728303255550756400,10.95475634765625,-0.97955322265625,-0.074737548828125,-0.040069580078125
1728303255560816400,10.96481640625,-0.9854736328125,-0.0891265869140625,-0.035919189453125
1728303255570876400,10.97487646484375,-0.9797210693359375,-0.1363677978515625,-0.044586181640625
1728303255580936400,10.9849365234375,-0.99188232421875,-0.0858612060546875,-0.0250244140625
1728303255590996200,10.994996337890624,-0.9934539794921875,-0.1257476806640625,-0.0316619873046875
1728303255601056300,11.00505615234375,-1.0012969970703125,-0.1107330322265625,-0.0477447509765625
1728303255611116300,11.0151162109375,-1.009674072265625,-0.0565338134765625,-0.0192108154296875
1728303255621176600,11.025176513671875,-0.97515869140625,-0.113128662109375,-0.065704345703125
1728303255631236400,11.035236328125,-0.995513916015625,-0.17144775390625,-0.0367279052734375
1728303255641296400,11.04529638671875,-0.9649200439453125,-0.1544036865234375,-0.0426025390625
1728303255651356400,11.0553564453125,-0.9912109375,-0.0981292724609375,-0.0502166748046875
1728303255661416200,11.065416259765625,-1.0434722900390625,-0.142578125,-0.0481719970703125
1728303255671476500,11.0754765625,-1.023468017578125,-0.1361541748046875,-0.040740966796875
1728303255681536500,11.08553662109375,-1.0121307373046875,-0.121978759765625,-0.0256805419921875
1728303255691596300,11.09559619140625,-0.9534759521484375,-0.1226654052734375,-0.0527801513671875
1728303255701655300,11.1056552734375,-1.0177001953125,-0.1420440673828125,-0.0333404541015625
1728303255711715600,11.115715576171874,-0.9851837158203125,-0.1688232421875,-0.0446929931640625
1728303255721775400,11.125775390625,-0.99114990234375,-0.1510009765625,-0.0333099365234375
1728303255731835400,11.13583544921875,-0.979949951171875,-0.1334381103515625,-0.0430755615234375
1728303255741895400,11.1458955078125,-0.974609375,-0.13262939453125,-0.0558929443359375
1728303255751955200,11.155955078125,-0.970428466796875,-0.100311279296875,-0.020538330078125
1728303255762015200,11.16601513671875,-0.9433135986328125,-0.08746337890625,-0.0645599365234375
1728303255772075500,11.176075439453125,-1.003692626953125,-0.0781707763671875,-0.0311431884765625
1728303255782135600,11.186135498046875,-0.94512939453125,-0.063323974609375,-0.0365447998046875
1728303255792195300,11.1961953125,-0.986724853515625,-0.0279541015625,-0.032958984375
1728303255802255400,11.20625537109375,-0.976531982421875,-0.0484466552734375,-0.0166168212890625
1728303255812315400,11.2163154296875,-0.978668212890625,-0.0501556396484375,-0.0335235595703125
1728303255822375400,11.22637548828125,-0.9922027587890625,-0.0028228759765625,-0.015472412109375
1728303255832435500,11.236435546875,-0.959014892578125,-0.0054931640625,-0.0341033935546875
1728303255842495500,11.24649560546875,-1.01605224609375,-0.018646240234375,-0.0144195556640625
1728303255852555300,11.25655517578125,-0.9725799560546875,-0.011871337890625,-0.0334014892578125
1728303255862615300,11.266615234375,-0.99053955078125,0.0091094970703125,-0.052734375
1728303255872675300,11.27667529296875,-1.0012359619140625,-0.0015716552734375,-0.0367889404296875
1728303255882735600,11.286735595703124,-1.021087646484375,-0.0309600830078125,-0.024383544921875
1728303255892795400,11.29679541015625,-1.0156097412109375,-0.022308349609375,-0.019927978515625
1728303255902855400,11.30685546875,-0.9909820556640625,0.0017242431640625,-0.030609130859375
1728303255912915500,11.31691552734375,-1.0255126953125,-0.025238037109375,-0.030975341796875
1728303255922975200,11.326975341796874,-1.0023193359375,-0.029327392578125,-0.0416412353515625
1728303255933035300,11.33703515625,-1.033905029296875,-0.0538482666015625,-0.012664794921875
1728303255943095600,11.347095458984375,-0.994110107421875,-0.0562896728515625,-0.0473175048828125
1728303255953155300,11.3571552734375,-1.0120391845703125,-0.0921173095703125,-0.0044403076171875
1728303255963215400,11.36721533203125,-0.9996337890625,-0.0981292724609375,-0.0301361083984375
1728303255973275400,11.377275390625,-1.039794921875,-0.1253662109375,-0.01953125
1728303255983335400,11.38733544921875,-0.979217529296875,-0.1099395751953125,-0.037078857421875
1728303255993395500,11.3973955078125,-0.998626708984375,-0.1411590576171875,-0.0143280029296875
1728303256003455500,11.40745556640625,-0.9698333740234375,-0.1878662109375,-0.06951904296875
1728303256013515500,11.417515625,-1.0237579345703125,-0.1673126220703125,0.023895263671875
1728303256023575300,11.4275751953125,-0.927764892578125,-0.172607421875,-0.0401611328125
1728303256033635300,11.43763525390625,-1.0174713134765625,-0.1665802001953125,-0.0316009521484375
1728303256043695400,11.4476953125,-0.9489288330078125,-0.1969451904296875,-0.054168701171875
1728303256053755400,11.45775537109375,-1.0257720947265625,-0.154998779296875,0.0037384033203125
1728303256063815400,11.4678154296875,-0.9356842041015625,-0.1709747314453125,-0.046539306640625
1728303256073875500,11.47787548828125,-0.9863128662109375,-0.16534423828125,-0.04571533203125
1728303256083935200,11.487935302734375,-0.978240966796875,-0.1179351806640625,-0.0240020751953125
1728303256093995300,11.497995361328124,-0.959075927734375,-0.1399688720703125,-0.0476531982421875
1728303256104055300,11.50805517578125,-0.9956207275390625,-0.1334381103515625,-0.0376739501953125
1728303256114115600,11.518115478515625,-0.9486236572265625,-0.117279052734375,-0.043426513671875
1728303256124175400,11.52817529296875,-0.9766387939453125,-0.106964111328125,-0.0326080322265625
1728303256134235400,11.5382353515625,-0.9452362060546875,-0.08551025390625,-0.0577850341796875
1728303256144295400,11.54829541015625,-1.0266571044921875,-0.130706787109375,-0.0464019775390625
1728303256154355200,11.558355224609375,-0.9375762939453125,-0.0929412841796875,-0.0434722900390625
1728303256164415200,11.568415283203125,-1.02288818359375,-0.120513916015625,-0.034637451171875
1728303256174475500,11.5784755859375,-0.955169677734375,-0.094085693359375,-0.0448150634765625
1728303256184535300,11.588535400390626,-1.007720947265625,-0.1303558349609375,-0.0381011962890625
1728303256194595300,11.59859521484375,-0.9767608642578125,-0.1337738037109375,-0.0330963134765625
1728303256204655400,11.6086552734375,-1.0120391845703125,-0.1641845703125,-0.063751220703125
1728303256214715400,11.61871533203125,-1.001190185546875,-0.144439697265625,-0.02886962890625
1728303256224775400,11.628775390625,-1.004730224609375,-0.186767578125,-0.0543670654296875
1728303256234835500,11.63883544921875,-0.9795684814453125,-0.1848602294921875,-0.0337371826171875
1728303256244895500,11.6488955078125,-0.9868927001953125,-0.2093505859375,-0.0614013671875
1728303256254955300,11.658955322265625,-1.001678466796875,-0.2110595703125,-0.023529052734375
1728303256265015300,11.669015380859374,-0.9862823486328125,-0.223724365234375,-0.0565032958984375
1728303256275075300,11.679075439453126,-1.0032196044921875,-0.2386932373046875,-0.011444091796875
1728303256285135400,11.68913525390625,-0.9526214599609375,-0.242767333984375,-0.06121826171875
1728303256295195400,11.6991953125,-0.9892730712890625,-0.2305755615234375,-0.0015106201171875
1728303256305255400,11.70925537109375,-0.986053466796875,-0.2532958984375,-0.0729217529296875
1728303256315315500,11.7193154296875,-1.0389404296875,-0.2428436279296875,0.0015411376953125
1728303256325375200,11.729375244140625,-0.9654998779296875,-0.2455902099609375,-0.065277099609375
1728303256335435300,11.739435302734375,-1.002777099609375,-0.2259521484375,-0.000946044921875
1728303256345495600,11.74949560546875,-0.987030029296875,-0.2299346923828125,-0.0459136962890625
1728303256355555300,11.759555419921876,-0.9964447021484375,-0.2105712890625,-0.000335693359375
1728303256365615400,11.769615478515625,-0.9763336181640625,-0.22052001953125,-0.0669403076171875
1728303256375675400,11.77967529296875,-1.0190582275390625,-0.2154083251953125,0.0120086669921875
1728303256385735200,11.789735107421874,-0.926025390625,-0.190155029296875,-0.0704498291015625
1728303256395795500,11.79979541015625,-1.01910400390625,-0.1850128173828125,0.0093994140625
1728303256405855500,11.80985546875,-0.9564666748046875,-0.206207275390625,-0.0760955810546875
1728303256415915500,11.81991552734375,-1.0362396240234375,-0.180694580078125,0.019622802734375
1728303256425975300,11.829975341796874,-0.9336395263671875,-0.1872406005859375,-0.080078125
1728303256436035300,11.840035400390626,-1.0226593017578125,-0.21185302734375,-0.00067138671875
1728303256446095400,11.850095458984375,-0.947662353515625,-0.1792755126953125,-0.0672454833984375
1728303256456155400,11.8601552734375,-1.0119476318359375,-0.19384765625,-0.011627197265625
1728303256466215400,11.87021533203125,-0.9458160400390625,-0.197723388671875,-0.0804443359375
1728303256476275500,11.880275390625,-1.0370635986328125,-0.2241363525390625,0.0124969482421875
1728303256486336000,11.8903359375,-0.9162139892578125,-0.177215576171875,-0.0677032470703125
1728303256496396000,11.90039599609375,-0.9858856201171875,-0.2306060791015625,0.0061492919921875
1728303256506455800,11.910455810546875,-0.96246337890625,-0.224212646484375,-0.0698089599609375
1728303256516516000,11.92051611328125,-1.0345611572265625,-0.1970062255859375,0.03424072265625
1728303256526573800,11.93057373046875,-0.894073486328125,-0.2353668212890625,-0.068359375
1728303256536633900,11.9406337890625,-1.0271453857421875,-0.236053466796875,0.0164031982421875
1728303256546694100,11.950694091796874,-0.97442626953125,-0.2271575927734375,-0.0474090576171875
1728303256556754200,11.960754150390626,-0.988189697265625,-0.204345703125,0.0102081298828125
1728303256566814000,11.97081396484375,-0.9994659423828125,-0.2570343017578125,-0.0509185791015625
1728303256576874000,11.9808740234375,-0.9695892333984375,-0.23919677734375,0.006622314453125
1728303256586934000,11.99093408203125,-0.974090576171875,-0.2054901123046875,-0.0427093505859375
1728303256596994000,12.000994140625,-0.9427490234375,-0.2151641845703125,-0.025177001953125
1728303256607054000,12.01105419921875,-1.0781097412109375,-0.2304534912109375,-0.0148468017578125
1728303256617114000,12.021114013671875,-0.9599151611328125,-0.2079315185546875,-0.03875732421875
1728303256627174000,12.031173828125,-1.0091705322265625,-0.22393798828125,-0.03704833984375
1728303256637234000,12.04123388671875,-0.9429779052734375,-0.210235595703125,-0.0562896728515625
1728303256647294000,12.0512939453125,-1.0353851318359375,-0.1850128173828125,-0.0076904296875
1728303256657354200,12.061354248046875,-0.9802398681640625,-0.1959991455078125,-0.0437774658203125
1728303256667414000,12.0714140625,-1.0456085205078125,-0.2036285400390625,-0.0052642822265625
1728303256677474000,12.08147412109375,-0.99066162109375,-0.2033843994140625,-0.0472412109375
1728303256687534000,12.0915341796875,-1.0000457763671875,-0.1625823974609375,-0.0062408447265625
1728303256697593900,12.10159375,-0.991180419921875,-0.195098876953125,-0.048553466796875
1728303256707654000,12.11165380859375,-0.997406005859375,-0.2000274658203125,-0.0181732177734375
1728303256717714200,12.121714111328124,-1.022003173828125,-0.1959228515625,-0.068603515625
1728303256727774000,12.13177392578125,-0.9530487060546875,-0.18939208984375,-0.032470703125
1728303256737834000,12.141833984375,-1.0432891845703125,-0.1984405517578125,-0.02642822265625
1728303256747894000,12.15189404296875,-0.9549713134765625,-0.21185302734375,-0.05828857421875
1728303256757954000,12.1619541015625,-1.037078857421875,-0.188079833984375,0.014404296875
1728303256768014000,12.17201416015625,-0.9812469482421875,-0.2000579833984375,-0.0458221435546875
1728303256778074000,12.18207421875,-1.02972412109375,-0.201812744140625,-0.0194244384765625
1728303256788134100,12.192134033203125,-0.96612548828125,-0.221435546875,-0.06292724609375
1728303256798194000,12.20219384765625,-0.9881591796875,-0.192352294921875,-0.0034942626953125
1728303256808254000,12.21225390625,-0.923004150390625,-0.2411346435546875,-0.12554931640625
1728303256818314000,12.22231396484375,-0.9892730712890625,-0.1977691650390625,-0.0069122314453125
1728303256828374000,12.2323740234375,-0.9717254638671875,-0.215301513671875,-0.0521697998046875
1728303256838434000,12.24243408203125,-0.9279937744140625,-0.196624755859375,-0.0378875732421875
1728303256848494000,12.252494140625,-1.01519775390625,-0.2276611328125,-0.02349853515625
1728303256858553900,12.262553955078126,-0.91851806640625,-0.1921844482421875,-0.043792724609375
1728303256868614000,12.27261376953125,-0.962982177734375,-0.1790924072265625,-0.0093841552734375
1728303256878674000,12.282673828125,-0.9567108154296875,-0.2196044921875,-0.069854736328125
1728303256888734200,12.292734130859374,-0.9860382080078125,-0.204345703125,-0.02349853515625
1728303256898794000,12.3027939453125,-0.97607421875,-0.197723388671875,-0.0605316162109375
1728303256908854000,12.31285400390625,-0.9503021240234375,-0.191680908203125,-0.0516357421875
1728303256918914000,12.3229140625,-1.00762939453125,-0.203857421875,-0.0333251953125
1728303256928973800,12.332973876953124,-0.9592437744140625,-0.20147705078125,-0.0464019775390625
1728303256939034000,12.3430341796875,-0.9910888671875,-0.2114715576171875,-0.001068115234375
1728303256949094100,12.35309423828125,-0.90777587890625,-0.196563720703125,-0.0582275390625
1728303256959154000,12.36315380859375,-0.9458160400390625,-0.1785125732421875,-0.021881103515625
1728303256969213000,12.373212890625,-0.9761199951171875,-0.2023773193359375,-0.0274810791015625
1728303256979274000,12.38327392578125,-0.9921722412109375,-0.211639404296875,-0.0408477783203125
1728303256989334000,12.393333984375,-0.984161376953125,-0.21746826171875,-0.031280517578125
1728303256999394000,12.40339404296875,-0.91302490234375,-0.2124176025390625,-0.07623291015625
1728303257009453000,12.413453125,-1.000213623046875,-0.20050048828125,-0.0139617919921875
1728303257019512800,12.423512939453126,-0.9918365478515625,-0.2260284423828125,-0.0503082275390625
1728303257029572900,12.43357275390625,-1.001373291015625,-0.1962432861328125,-0.0347747802734375
1728303257039633200,12.443633056640625,-1.00616455078125,-0.219512939453125,-0.021240234375
1728303257049693200,12.453693115234374,-0.9930877685546875,-0.20654296875,-0.046661376953125
1728303257059753000,12.4637529296875,-1.063140869140625,-0.202972412109375,-0.0081329345703125
1728303257069813000,12.47381298828125,-1.035858154296875,-0.2284698486328125,-0.0343017578125
1728303257079873000,12.483873046875,-0.993377685546875,-0.2174072265625,-0.0345306396484375
1728303257089932800,12.493932861328124,-0.999267578125,-0.2251434326171875,-0.0173797607421875
1728303257099993000,12.5039931640625,-0.9939727783203125,-0.1970977783203125,-0.0471343994140625
1728303257110053000,12.51405322265625,-1.03997802734375,-0.2132415771484375,-0.0162200927734375
1728303257120113000,12.52411279296875,-0.977447509765625,-0.220611572265625,-0.061614990234375
1728303257130173000,12.5341728515625,-0.9795379638671875,-0.1925506591796875,-0.0374603271484375
1728303257140234000,12.54423388671875,-0.9915008544921875,-0.199615478515625,-0.0394439697265625
1728303257150294000,12.5542939453125,-1.0230560302734375,-0.1995849609375,-0.0599365234375
1728303257160353800,12.564353759765625,-1.039398193359375,-0.1976776123046875,-0.0199737548828125
1728303257170414000,12.5744140625,-0.95318603515625,-0.2186126708984375,-0.04656982421875
1728303257180474000,12.58447412109375,-0.9961395263671875,-0.1486968994140625,-0.01654052734375
1728303257190534100,12.5945341796875,-1.0114898681640625,-0.1934051513671875,-0.0142974853515625
1728303257200594000,12.604593994140625,-0.985137939453125,-0.2642059326171875,-0.0384979248046875
1728303257210654000,12.614654052734375,-1.0250244140625,-0.1620025634765625,-0.0317535400390625
1728303257220714000,12.6247138671875,-0.8571319580078125,-0.16839599609375,-0.0522613525390625
1728303257230774000,12.63477392578125,-1.0260467529296875,-0.247589111328125,-0.0242156982421875
1728303257240834000,12.644833984375,-1.019683837890625,-0.2327117919921875,-0.061492919921875
1728303257250894000,12.65489404296875,-0.9393768310546875,-0.180816650390625,-0.03857421875
1728303257260953900,12.664953857421875,-0.94683837890625,-0.208404541015625,-0.009124755859375
1728303257271014000,12.675013916015626,-1.0218353271484375,-0.267730712890625,-0.02655029296875
1728303257281074000,12.685073974609375,-0.981170654296875,-0.20550537109375,-0.0089111328125
1728303257291134200,12.69513427734375,-0.989837646484375,-0.1956024169921875,-0.0251312255859375
1728303257301194000,12.705194091796875,-0.980865478515625,-0.25665283203125,-0.021728515625
1728303257311254000,12.71525390625,-1.0155487060546875,-0.230010986328125,-0.016693115234375
1728303257321314000,12.72531396484375,-0.98553466796875,-0.20440673828125,-0.0305938720703125
1728303257331373800,12.735373779296875,-1.0028228759765625,-0.26251220703125,-0.036773681640625
1728303257341434000,12.74543408203125,-0.9875335693359375,-0.216217041015625,-0.005401611328125
1728303257351494100,12.755494140625,-0.9528961181640625,-0.2091064453125,-0.03363037109375
1728303257361554000,12.765553955078126,-0.9694061279296875,-0.21807861328125,-0.0180511474609375
1728303257371614000,12.775614013671875,-0.9561309814453125,-0.226654052734375,-0.02545166015625
1728303257381674000,12.785674072265625,-0.9752655029296875,-0.191253662109375,-0.00933837890625
1728303257391733800,12.795733642578124,-0.9506072998046875,-0.2028045654296875,-0.0433197021484375
1728303257401794000,12.8057939453125,-1.008819580078125,-0.2349700927734375,-0.0074462890625
1728303257411854000,12.81585400390625,-0.926544189453125,-0.2154083251953125,-0.0285797119140625
1728303257421914000,12.8259140625,-0.939117431640625,-0.1717987060546875,-0.00592041015625
1728303257431974000,12.835973876953124,-0.974853515625,-0.2061004638671875,-0.01129150390625
1728303257442034000,12.846033935546876,-0.9857940673828125,-0.220611572265625,-0.0211181640625
1728303257452094000,12.856093994140625,-0.9698486328125,-0.1915740966796875,-0.00079345703125
1728303257462154000,12.866154052734375,-0.9667510986328125,-0.201934814453125,-0.004058837890625
1728303257472214000,12.876214111328125,-0.9633636474609375,-0.228607177734375,-0.0246429443359375
