time,seconds_elapsed,z,y,x
1728303244625598500,0.029598388671875,0.007232879288494587,0.0073165022768080235,-0.0036216326989233494
1728303244635658500,0.039658447265625,0.006107693538069725,0.02159557305276394,-0.010512029752135277
1728303244645718500,0.049718505859375,0.005578523501753807,0.007113036699593067,-0.00027803401462733746
1728303244655778600,0.059778564453125,0.005548696033656597,0.009015599265694618,-0.010820423252880573
1728303244665838600,0.069838623046875,0.001005343277938664,0.018632540479302406,-0.016829580068588257
1728303244675898600,0.079898681640625,0.004297809209674597,0.01005183532834053,-0.002936667762696743
1728303244685958700,0.089958740234375,0.009890181012451649,-0.0019403791520744562,-0.010482202284038067
1728303244696018400,0.100018310546875,0.0030959248542785645,-0.00634897593408823,-0.012425243854522705
1728303244706078500,0.110078369140625,0.006098638754338026,-0.01468520238995552,-0.006353769451379776
1728303244716138500,0.120138427734375,0.008742624893784523,-0.015966182574629784,-0.01062388252466917
1728303244726198500,0.130198486328125,0.004985969979315996,-0.012119246646761894,-0.01091842819005251
1728303244736258600,0.140258544921875,0.010188722051680088,-0.03471750020980835,-0.002769953804090619
1728303244746318600,0.150318603515625,0.012113387696444988,-0.033845581114292145,-0.008993761613965034
1728303244756378600,0.160378662109375,0.006058691535145044,-0.01489346195012331,-0.005149221979081631
1728303244766438400,0.1704384765625,0.010573548264801502,-0.02443104051053524,0.0015510249650105834
1728303244776498400,0.18049853515625,0.012108860537409782,-0.016277506947517395,-0.006907174363732338
1728303244786558700,0.190558837890625,0.006287723314017057,-0.01979367807507515,-0.003579022129997611
1728303244796618500,0.200618408203125,0.011232946999371052,-0.012405803427100182,0.0015030881622806191
1728303244806678500,0.210678466796875,0.014312893152236938,-0.004449076950550079,-0.0033907366450875998
1728303244816738600,0.220738525390625,0.0018674085149541497,-0.00430100504308939,-0.00037816885742358863
1728303244826798300,0.23079833984375,0.005306880921125412,-0.017342237755656242,0.0067846691235899925
1728303244836858600,0.240858642578125,0.010293916799128056,0.003637877991423011,-0.009473929181694984
1728303244846918700,0.250918701171875,0.004022704903036356,0.004765193909406662,-0.0035137746017426252
1728303244856978700,0.260978759765625,0.0096273273229599,-0.005803028121590614,0.003067961661145091
1728303244867038500,0.27103857421875,0.00902784988284111,-0.010063553228974342,-0.002285258611664176
1728303244877098500,0.281098388671875,-0.00045806370326317847,0.00726403808221221,0.0012500877492129803
1728303244887158500,0.291158447265625,0.00577826052904129,-0.007535147946327925,0.002412823960185051
1728303244897218600,0.301218505859375,0.007249124348163605,0.02196655236184597,-0.005102616734802723
1728303244907278600,0.311278564453125,0.0028298748657107353,0.009090700186789036,0.009953830391168594
1728303244917338600,0.321338623046875,0.00520754512399435,-0.008777512237429619,0.0034589136485010386
1728303244927398400,0.3313984375,-0.0013281183782964945,0.006163886282593012,0.001600559800863266
1728303244937458400,0.34145849609375,-0.006010488141328096,0.010134126991033554,-0.0013853764394298196
1728303244947518500,0.3515185546875,-0.022295719012618065,0.003260508179664612,-0.028803952038288116
1728303244957578800,0.361578857421875,-0.07323826104402542,-0.01726767048239708,-0.09455367177724838
1728303244967638500,0.371638427734375,-0.14412921667099,-0.021327393129467964,-0.19675913453102112
1728303244977698600,0.381698486328125,-0.21533069014549255,-0.0749296322464943,-0.32990148663520813
1728303244987757600,0.391757568359375,0.005248824134469032,-0.3324679732322693,0.10363611578941345
1728303244997817600,0.401817626953125,-0.04788709804415703,-0.06856787204742432,0.022478677332401276
1728303245007877600,0.411877685546875,-0.010811635293066502,0.0016080166678875685,-0.00512871565297246
1728303245017937700,0.421937744140625,0.0055063520558178425,0.007696801796555519,-0.002769953804090619
1728303245027997400,0.43199755859375,0.009863017126917839,-0.014183463528752327,0.008146876469254494
1728303245038057500,0.442057373046875,0.008812399581074715,-0.003479952458292246,-0.006855775602161884
1728303245048117800,0.45211767578125,0.0046544065698981285,-0.007750864140689373,-0.004225105047225952
1728303245058177500,0.462177490234375,0.009929596446454525,-0.019902069121599197,-0.002127066720277071
1728303245068237600,0.472237548828125,0.006557767745107412,-0.026667563244700432,-0.008837966248393059
1728303245078297600,0.482297607421875,0.0021576930303126574,-0.021379590034484863,-0.010853713378310204
1728303245088357400,0.492357421875,0.007290669716894627,-0.01666020229458809,-0.009876333177089691
1728303245098417400,0.50241748046875,0.007415305823087692,-0.0448918417096138,-0.008098673075437546
1728303245108477700,0.512477783203125,0.0005432848702184856,-0.035172633826732635,-0.012547483667731285
1728303245118537700,0.522537841796875,0.0035606464371085167,-0.0629802942276001,-0.003385144053027034
1728303245128597500,0.532597412109375,0.0067873322404921055,-0.037154294550418854,-0.006672816351056099
1728303245138657500,0.542657470703125,0.004520449787378311,-0.022484801709651947,-0.017428524792194366
1728303245148717600,0.552717529296875,0.002835467690601945,-0.057321611791849136,-0.005405950825661421
1728303245158777600,0.562777587890625,0.006258961278945208,-0.048762477934360504,-0.013461479917168617
1728303245168837600,0.572837646484375,0.000143544384627603,-0.02941807545721531,-0.008245146833360195
1728303245178897700,0.582897705078125,0.0068448567762970924,-0.02400094084441662,-0.006142847239971161
1728303245188957400,0.59295751953125,0.007951133884489536,-0.03326554596424103,-0.0049098036251962185
1728303245199017500,0.603017578125,0.0057492321357131,-0.022670425474643707,-0.005829659756273031
1728303245209077500,0.613077392578125,0.006542587652802467,-0.030703051015734673,-0.0048855687491595745
1728303245219137500,0.623137451171875,0.010565558448433876,-0.011813515797257423,-0.00535428524017334
1728303245229197600,0.633197509765625,0.007831824012100697,-0.0015456987312063575,-0.0003653856983873993
1728303245239257600,0.643257568359375,0.006155896931886673,-0.022062690928578377,-0.0027593011036515236
1728303245249317600,0.653317626953125,0.010468619875609875,-0.020427776500582695,-0.008069378323853016
1728303245259377400,0.66337744140625,0.007607585750520229,0.009272860363125801,-0.007504787761718035
1728303245269437400,0.6734375,0.0051750545389950275,-0.012166384607553482,-0.0030333404429256916
1728303245279497700,0.683497802734375,0.010634002275764942,-0.02088158018887043,0.0002743055811151862
1728303245289557500,0.6935576171875,0.004677043296396732,0.0010772485984489322,-0.008804144337773323
1728303245299617500,0.703617431640625,0.004837365821003914,-0.005928729195147753,-0.005057076457887888
1728303245309677600,0.713677490234375,0.010963968001306057,-0.005547364708036184,-0.0026146916206926107
1728303245319737300,0.7237373046875,0.0019853864796459675,0.014487063512206078,-0.0027441212441772223
1728303245329797600,0.733797607421875,-0.0001613875647308305,-0.01654515415430069,0.0016471651615574956
1728303245339857700,0.743857666015625,0.006943127140402794,-0.016685768961906433,-0.001213868847116828
1728303245349917700,0.753917724609375,0.0009214537567459047,0.015735287219285965,-0.008298942819237709
1728303245359977500,0.7639775390625,0.0011558119440451264,0.004509530495852232,-0.004072239622473717
1728303245370037500,0.77403759765625,0.004316451493650675,-0.0022088258992880583,-0.007242732681334019
1728303245380097500,0.78409765625,0.004519917070865631,0.022358035668730736,-0.010595652274787426
1728303245390157600,0.794157470703125,-0.0015568839153274894,-0.005227252375334501,-0.008859537541866302
1728303245400217600,0.804217529296875,0.0028695559594780207,-0.0002591255761217326,-0.007495732977986336
1728303245410277600,0.814277587890625,0.005933256354182959,0.027395937591791153,-0.013348829001188278
1728303245420337400,0.82433740234375,0.007173757068812847,-0.0002556634717620909,-0.0070547135546803474
1728303245430397400,0.8343974609375,0.0032293491531163454,-0.01059352234005928,-0.01130751520395279
1728303245440457500,0.84445751953125,0.005363606382161379,0.01943708024919033,-0.007918376475572586
1728303245450517800,0.854517822265625,0.007302387617528439,0.0007504787645302713,-0.006756173446774483
1728303245460577500,0.86457763671875,0.003266367129981518,0.0010663296561688185,-0.008553273975849152
1728303245470638000,0.87463818359375,0.005520733073353767,0.00911626685410738,-0.002016279147937894
1728303245480697000,0.884697021484375,0.006160424090921879,-0.005723133217543364,-0.003352919826284051
1728303245490757000,0.894757080078125,0.006622748915106058,-0.007443535141646862,-0.001323857344686985
1728303245500817200,0.904817138671875,0.007203051820397377,0.026555711403489113,-0.0076035913079977036
1728303245510877200,0.914877197265625,0.008582835085690022,-0.005742574110627174,0.005049353465437889
1728303245520937200,0.924937255859375,0.00509862182661891,-0.014732606709003448,-0.0027411917690187693
1728303245530997000,0.9349970703125,0.0033936661202460527,-0.004379302263259888,0.003285275539383292
1728303245541057000,0.94505712890625,0.010493121109902859,-0.004881840664893389,0.0009004147723317146
1728303245551117000,0.955116943359375,0.007574296556413174,-0.011666775681078434,0.0010817759903147817
1728303245561177000,0.965177001953125,0.0032735576387494802,0.0006436860421672463,-0.0044133905321359634
1728303245571237000,0.975237060546875,0.006424875929951668,-0.02117239683866501,-0.0017339842161163688
1728303245581297200,0.985297119140625,0.0066062374971807,-0.020840300247073174,-0.0021766014397144318
1728303245591357200,0.995357177734375,0.006791593506932259,0.008323709480464458,-0.0036932716611772776
1728303245601417000,1.0054169921875,0.00866379588842392,-0.004282629117369652,-0.008378038182854652
1728303245611477200,1.015477294921875,0.007694937754422426,-0.01560905296355486,-0.005309011787176132
1728303245621537300,1.025537353515625,0.0018924422329291701,0.008971656672656536,-0.012419384904205799
1728303245631597000,1.03559716796875,0.010494984686374664,-0.0014064153656363487,-0.013592507690191269
1728303245641657000,1.045656982421875,0.00737242866307497,-0.0009635316673666239,-0.017911888659000397
1728303245651717000,1.055717041015625,0.0041342913173139095,0.01968422159552574,-0.024044083431363106
1728303245661777000,1.06577685546875,0.01110271830111742,0.01056023221462965,-0.019266905263066292
1728303245671837200,1.075837158203125,0.007021158002316952,0.008926116861402988,-0.02154577150940895
1728303245681897200,1.085897216796875,0.0013630058383569121,0.03253024443984032,-0.028726186603307724
1728303245691957200,1.095957275390625,0.0065588331781327724,0.010913367383182049,-0.02382304146885872
1728303245702017000,1.10601708984375,0.003069559345021844,0.017840249463915825,-0.026166090741753578
1728303245712077000,1.1160771484375,0.0033451966010034084,0.03693964332342148,-0.025501631200313568
1728303245722137000,1.12613720703125,0.0025355955585837364,0.004416053649038076,-0.027237746864557266
1728303245732197000,1.136197021484375,0.00019387812062632293,0.014912636950612068,-0.029572805389761925
1728303245742257200,1.146257080078125,-0.0016860472969710827,0.030170151963829994,-0.023359917104244232
1728303245752317200,1.156317138671875,0.000934236915782094,0.007185208611190319,-0.019000323489308357
1728303245762377000,1.166376953125,-0.000559530162718147,0.010380469262599945,-0.025202825665473938
1728303245772437000,1.17643701171875,-0.0022447784431278706,0.02160622552037239,-0.016746489331126213
1728303245782497300,1.186497314453125,0.0072355424053967,0.009729859419167042,-0.02148052491247654
1728303245792557300,1.196557373046875,0.00018642126815393567,0.011306450702250004,-0.017196830362081528
1728303245802617000,1.2066171875,0.0014053500490263104,0.021528461948037148,-0.014347514137625694
1728303245812677000,1.216677001953125,0.010500578209757805,0.008535963483154774,-0.014316621236503124
1728303245822737200,1.226737060546875,0.005334844347089529,0.022045115008950233,-0.013860688544809818
1728303245832797000,1.236796875,0.004581169690936804,0.010957842692732811,-0.0003009371866937727
1728303245842857200,1.246857177734375,0.01323857344686985,0.02033722959458828,-0.00851545762270689
1728303245852917200,1.256917236328125,0.008316519670188427,0.020289825275540352,-0.0041220407001674175
1728303245862977000,1.26697705078125,0.0033182986080646515,0.007156446576118469,0.0028570392169058323
1728303245873037000,1.277037109375,0.009997772984206676,0.0035140409599989653,0.0006612628931179643
1728303245883097000,1.28709716796875,0.005297826137393713,0.004477306269109249,0.007477623876184225
1728303245893157000,1.2971572265625,0.004334294702857733,-0.0075995963998138905,0.013498764485120773
1728303245903217200,1.307217041015625,0.009529856033623219,-0.0022943131625652313,0.0005731122801080346
1728303245913277200,1.317277099609375,0.005600095260888338,-0.007704524789005518,0.009578591212630272
1728303245923337200,1.327337158203125,0.001276186783798039,-0.017131315544247627,0.010871290229260921
1728303245933397000,1.33739697265625,0.0033870083279907703,-0.014056962914764881,0.004852545913308859
1728303245943457000,1.34745703125,-0.0032288164366036654,0.0031190942972898483,-0.00016724651504773647
1728303245953517300,1.357517333984375,-0.005963882897049189,-0.014099840074777603,0.0054674698039889336
1728303245963577000,1.3675771484375,0.0007821703911758959,-0.027209516614675522,0.005230714567005634
1728303245973637000,1.37763720703125,0.00015686018741689622,0.011886753141880035,-0.0006064017652533948
1728303245983697200,1.387697265625,-0.00130920996889472,-0.028068652376532555,0.005343366414308548
1728303245993757200,1.397757080078125,-0.0053553506731987,-0.03013686276972294,-0.0027230822015553713
1728303246003817000,1.40781689453125,-0.002737196860834956,0.0023909860756248236,-0.010577809065580368
1728303246013877200,1.417877197265625,0.0006311691831797361,-0.021142570301890373,0.0004223773430567235
1728303246023937300,1.427937255859375,-0.0002359560749027878,-0.02509017288684845,-0.006997455842792988
1728303246033997000,1.4379970703125,0.000059388490626588464,-0.025861691683530807,-0.007134874816983938
1728303246044057000,1.44805712890625,0.0038780951872467995,-0.03750662878155708,-0.0032748891972005367
1728303246054117000,1.4581171875,0.007018494885414839,-0.031246868893504143,-0.010923488065600395
1728303246064177200,1.46817724609375,0.000037017940485384315,-0.024821460247039795,-0.008134892210364342
1728303246074237200,1.4782373046875,0.006310892757028341,-0.0323166623711586,-0.008435296826064587
1728303246084297200,1.488297119140625,0.00820946041494608,-0.03604188933968544,-0.0071037160232663155
1728303246094357000,1.49835693359375,0.0035140409599989653,-0.02203153260052204,-0.010989001952111721
1728303246104417000,1.5084169921875,0.005476790945976973,-0.019906597211956978,-0.007389739155769348
1728303246114477000,1.51847705078125,0.008469651453197002,-0.0277397520840168,-0.0057218014262616634
1728303246124537300,1.528537353515625,0.0007137271459214389,-0.005952964071184397,-0.015252988785505295
1728303246134597000,1.53859716796875,0.0005502090789377689,-0.035537488758563995,-0.0023869911674410105
1728303246144657200,1.5486572265625,0.0030623688362538815,-0.014056696556508541,-0.006138320080935955
1728303246154717200,1.55871728515625,0.0028751487843692303,-0.008592423051595688,-0.006150304339826107
1728303246164777000,1.56877685546875,-0.0032653016969561577,-0.025320004671812057,-0.0021781993564218283
1728303246174837000,1.5788369140625,0.00037230990710668266,-0.02550429478287697,-0.0025872609112411737
1728303246184897300,1.588897216796875,-0.003966245800256729,-0.007923702709376812,-0.0010165285784751177
1728303246194957000,1.59895703125,-0.004459463059902191,-0.02413596212863922,0.00019760655413847417
1728303246205017000,1.60901708984375,-0.005067196674644947,-0.025730131193995476,0.00005672533006872982
1728303246215077000,1.6190771484375,-0.00956607423722744,-0.010831075720489025,-0.0004623247659765184
1728303246225137200,1.62913720703125,-0.009434514679014683,-0.026377012953162193,0.006506368983536959
1728303246235197200,1.639197265625,-0.005006209947168827,-0.017196297645568848,0.0026501116808503866
1728303246245257200,1.64925732421875,-0.008627310395240784,-0.013294766657054424,0.002162486780434847
1728303246255317200,1.659317138671875,-0.009983125142753124,-0.020055467262864113,0.00162426196038723
1728303246265377000,1.669376953125,-0.006700513418763876,-0.018918562680482864,0.0011667308863252401
1728303246275437000,1.67943701171875,-0.011988486163318157,0.0005877596559002995,-0.006589725613594055
1728303246285497000,1.6894970703125,-0.0014394385507330298,-0.012265987694263458,0.0025893915444612503
1728303246295557000,1.69955712890625,-0.0007632619817741215,-0.018037855625152588,-0.0038216360844671726
1728303246305617200,1.7096171875,-0.005662679206579924,-0.006046707276254892,-0.003877029987052083
1728303246315677200,1.71967724609375,0.00043302998528815806,-0.0035926043055951595,-0.001856755930930376
1728303246325737200,1.7297373046875,0.0016530241118744016,-0.011140535585582256,-0.012806609272956848
1728303246335797000,1.739796875,-0.002686596941202879,-0.0012812467757612467,-0.017243968322873116
1728303246345857000,1.74985693359375,-0.0009379653492942452,-0.0005573995877057314,-0.009823069907724857
1728303246355917300,1.759917236328125,0.008833971805870533,-0.014510765671730042,-0.017716147005558014
1728303246365977000,1.76997705078125,-0.004706604406237602,-0.000185888638952747,-0.02256176806986332
1728303246376037000,1.780037109375,0.003178216516971588,0.002002430846914649,-0.018014686182141304
1728303246386097200,1.79009716796875,0.0018423747969791293,-0.007583617232739925,-0.025072330608963966
1728303246396157000,1.800156982421875,-0.0043798345141112804,0.014683605171740055,-0.02587101235985756
1728303246406217200,1.81021728515625,-0.00007110639853635803,0.008920524269342422,-0.01966717839241028
1728303246416277200,1.82027734375,-0.0014136058744043112,-0.003590740030631423,-0.026701118797063828
1728303246426337300,1.830337158203125,-0.0040884846821427345,0.007410245481878519,-0.01972843147814274
1728303246436397000,1.84039697265625,-0.002251702593639493,0.01744263991713524,-0.016980847343802452
1728303246446457000,1.85045703125,-0.005558549892157316,0.017246099188923836,-0.017740381881594658
1728303246456517000,1.86051708984375,-0.006021406967192888,0.010297112166881561,-0.012309929355978966
1728303246466577200,1.8705771484375,-0.004430967383086681,0.017403224483132362,-0.009489108808338642
1728303246476637000,1.880636962890625,-0.00618093041703105,0.006833671126514673,-0.01007979828864336
1728303246486697000,1.890697021484375,-0.009147957898676395,0.015111574903130531,-0.005665875039994717
1728303246496757000,1.900757080078125,-0.001770203118212521,0.024273116141557693,0.003433080855756998
1728303246506817000,1.910817138671875,-0.0014082795241847634,0.01878061145544052,-0.007650729268789291
1728303246516877000,1.920876953125,-0.007274956908077002,0.008507201448082924,0.007053648587316275
1728303246526937000,1.93093701171875,-0.006045908201485872,0.019706061109900475,0.008052600547671318
1728303246536997000,1.9409970703125,-0.00484429020434618,0.016040218994021416,0.0017161410069093108
1728303246547057000,1.951056884765625,-0.005263737868517637,0.0148074422031641,0.003959854133427143
1728303246557117000,1.961116943359375,-0.002138518262654543,0.013795973733067513,0.006642456166446209
1728303246567177000,1.971177001953125,-0.001008539111353457,0.0014317154418677092,0.004202201962471008
1728303246577237000,1.981237060546875,-0.004867726005613804,0.014041250571608543,0.0023398532066494226
1728303246587297000,1.991297119140625,-0.0016247945604845881,0.01974334381520748,0.0046360306441783905
1728303246597357000,2.001357177734375,-0.0027483822777867317,-0.00037976677413098514,-0.0005792375304736197
1728303246607417000,2.0114169921875,-0.005857889074832201,-0.006301837973296642,0.0012053466634824872
1728303246617476900,2.021476806640625,-0.0003270361921750009,0.0017840516520664096,-0.0017960357945412397
1728303246627537000,2.031536865234375,-0.0011416971683502197,0.00138084904756397,-0.007558583747595549
1728303246637597200,2.04159716796875,-0.003838147735223174,-0.0027683558873832226,-0.006207029335200787
1728303246647657000,2.051656982421875,-0.003061303636059165,-0.0038360171020030975,-0.00535348616540432
1728303246657717000,2.061717041015625,-0.00138084904756397,-0.0088776471093297,-0.009641442447900772
1728303246667777000,2.071777099609375,-0.0042733084410429,-0.009524795226752758,-0.01449824869632721
1728303246677836800,2.0818369140625,-0.0036493295338004827,-0.007719704881310463,-0.012017780914902687
1728303246687897000,2.09189697265625,-0.0007744472241029143,-0.011462511494755745,-0.012987437658011913
1728303246697957000,2.10195703125,-0.0027867318131029606,-0.007168963085860014,-0.012851882725954056
1728303246708017200,2.11201708984375,-0.00126713200006634,0.0005720470217056572,-0.013815946877002716
1728303246718077000,2.122076904296875,-0.003424026072025299,-0.011781025677919388,-0.01363325398415327
1728303246728137000,2.132136962890625,-0.008625712245702744,-0.02767450548708439,-0.011519769206643105
1728303246738197000,2.142197021484375,-0.0007147924043238163,0.012577044777572155,-0.014315289445221424
1728303246748257000,2.152257080078125,0.002115881536155939,-0.022455507889389992,-0.008913067169487476
1728303246758317000,2.162317138671875,-0.005599562544375658,-0.02719087526202202,-0.01678244210779667
1728303246768377000,2.172377197265625,-0.0073407371528446674,-0.006050701718777418,-0.016022909432649612
1728303246778436900,2.182436767578125,0.00022690132027491927,-0.028610605746507645,-0.00942013319581747
1728303246788497000,2.192496826171875,-0.0016298545524477959,-0.015059110708534718,-0.014550979249179363
1728303246798557000,2.202556884765625,-0.0060171461664140224,0.0012484899489209056,-0.013767210766673088
1728303246808617200,2.2126171875,-0.004245611373335123,-0.03668637573719025,-0.0009930927772074938
1728303246818677000,2.222677001953125,-0.005137504078447819,-0.025302959606051445,-0.010159959085285664
1728303246828737000,2.232737060546875,-0.0090555464848876,0.000003728425554072601,-0.00621208967640996
1728303246838797000,2.242797119140625,-0.005339904222637415,-0.01531956810504198,-0.004681038204580545
1728303246848856800,2.25285693359375,-0.0024285365361720324,-0.02532160095870495,-0.004420847166329622
1728303246858917000,2.262917236328125,-0.005891977343708277,0.010328537784516811,-0.009607619605958462
1728303246868977200,2.27297705078125,-0.004579305648803711,-0.013619139790534973,-0.0009203884401358664
1728303246879037000,2.283036865234375,-0.004306064918637276,-0.023418772965669632,0.0010538127971813083
1728303246889097000,2.293096923828125,-0.005182511638849974,0.01612970046699047,-0.008872054517269135
1728303246899157000,2.303156982421875,-0.0046477485448122025,-0.006067479960620403,0.0006226470577530563
1728303246909217000,2.313217041015625,-0.007508516311645508,-0.026916302740573883,0.00008495483780279756
1728303246919277000,2.323277099609375,-0.007083475589752197,-0.005244562868028879,-0.005798766855150461
1728303246929337000,2.333337158203125,-0.006146043073385954,-0.008539159782230854,0.005527656991034746
1728303246939397000,2.343397216796875,-0.007015032693743706,-0.030227411538362503,0.002843723399564624
1728303246949457000,2.353456787109375,-0.00737349409610033,-0.0070770843885838985,-0.005319930613040924
1728303246959517000,2.363516845703125,-0.004619519226253033,-0.009981261566281319,0.0046908920630812645
1728303246969577000,2.373576904296875,-0.005584382452070713,-0.021348964422941208,-0.0017603494925424457
1728303246979637000,2.383636962890625,-0.0065439194440841675,-0.008057394064962864,-0.00440939562395215
1728303246989697000,2.393697021484375,-0.005733519326895475,0.001871403306722641,0.004820055328309536
1728303246999757000,2.403757080078125,0.0019345202017575502,-0.021326061338186264,0.004978513345122337
1728303247009816800,2.41381689453125,-0.007641141768544912,-0.02365819178521633,0.002739860210567713
1728303247019876900,2.423876953125,-0.0049588060937821865,0.006952714640647173,0.0016913736471906304
1728303247029937200,2.433937255859375,-0.000360059377271682,-0.010542122647166252,0.0043899547308683395
1728303247039997200,2.4439970703125,-0.0021321268286556005,-0.009908823296427727,0.0032948628067970276
1728303247050057000,2.454056884765625,-0.007638478651642799,0.007366036996245384,0.004221642855554819
1728303247060117000,2.464116943359375,-0.0014439659425988793,-0.009530387818813324,0.012988236732780933
1728303247070177000,2.474177001953125,-0.003870105603709817,-0.017771540209650993,0.0076270271092653275
1728303247080236800,2.48423681640625,-0.006145243998616934,0.02370532974600792,0.005636580288410187
1728303247090297000,2.494297119140625,0.001282312092371285,-0.00011904330312972888,0.013599698431789875
1728303247100357000,2.504357177734375,-0.004447212442755699,-0.019869845360517502,0.012389025650918484
1728303247110417000,2.5144169921875,-0.008096275851130486,0.004796086810529232,0.008383897133171558
1728303247120477000,2.524476806640625,0.00034967303508892655,-0.0013627394801005721,0.015688415616750717
1728303247130537000,2.534536865234375,-0.005404086317867041,-0.01685434766113758,0.017559019848704338
1728303247140597000,2.544596923828125,-0.007662713527679443,-0.004451473709195852,0.006503173150122166
1728303247150657000,2.554656982421875,-0.010009757243096828,-0.007259510923177004,0.011534949764609337
1728303247160717000,2.564717041015625,-0.0035236284602433443,-0.020720990374684334,0.011422830633819103
1728303247170777000,2.574777099609375,-0.010730674490332603,-0.012951218523085117,0.01034691371023655
1728303247180836900,2.5848369140625,-0.007020092569291592,-0.01176264975219965,0.015408516861498356
1728303247190897000,2.59489697265625,-0.0020303940400481224,-0.021854965016245842,0.005511678289622068
1728303247200957200,2.604957275390625,-0.010403905063867569,-0.02755972184240818,0.012190353125333786
1728303247211017000,2.615016845703125,-0.006738596595823765,-0.0022040321491658688,0.00669492082670331
1728303247221077000,2.625076904296875,-0.0011922972043976188,-0.02137026935815811,0.007947937585413456
1728303247231137000,2.635136962890625,-0.009889648295938969,-0.028842300176620483,0.0034410704392939806
1728303247241197000,2.645197021484375,-0.004249073565006256,-0.008769789710640907,-0.0009571401169523597
1728303247251256800,2.6552568359375,-0.0028338697738945484,-0.02346351370215416,0.007733287289738655
1728303247261317000,2.665317138671875,-0.005754025653004646,-0.02744520641863346,-0.0008980178972706199
1728303247271377200,2.675377197265625,-0.006925283931195736,-0.008415322750806808,-0.004172374494373798
1728303247281437000,2.68543701171875,-0.00367116741836071,-0.02142779342830181,-0.00586667750030756
1728303247291497000,2.6954970703125,-0.0009701895760372281,-0.02514769695699215,-0.011363708414137363
1728303247301557000,2.705556884765625,-0.0049590724520385265,-0.007228351663798094,-0.006141782272607088
1728303247311617000,2.715616943359375,-0.0012687299167737365,-0.016443954780697823,-0.012469719164073467
1728303247321677000,2.725677001953125,-0.0011448930017650127,-0.027004985138773918,-0.014156565070152283
1728303247331737000,2.735737060546875,-0.0046418895944952965,-0.008715993724763393,-0.0075487298890948296
1728303247341797000,2.745797119140625,-0.00669465446844697,-0.026090722531080246,-0.007445665542036295
1728303247351857000,2.75585693359375,-0.003276220755651593,-0.029980003833770752,-0.01134080532938242
1728303247361917000,2.7659169921875,-0.005617938470095396,-0.003227218519896269,-0.015515576116740704
1728303247371977200,2.775977294921875,-0.005200887098908424,-0.02233220264315605,-0.008293083868920803
1728303247382037000,2.786037109375,-0.004279699642211199,-0.025556758046150208,-0.009648099541664124
1728303247392097000,2.796096923828125,-0.009076053276658058,0.003513242118060589,-0.008567655459046364
1728303247402157000,2.806156982421875,-0.00580862071365118,-0.027542145922780037,-0.008492021821439266
1728303247412216800,2.816216796875,-0.005885586142539978,-0.03365223482251167,-0.009924003854393959
1728303247422276900,2.82627685546875,-0.006646451074630022,0.0022245384752750397,-0.010939999483525753
1728303247432337200,2.836337158203125,-0.0016474314033985138,-0.017961423844099045,-0.0057228668592870235
1728303247442397200,2.846397216796875,-0.007467770017683506,-0.03575852885842323,-0.009432916529476643
1728303247452457000,2.85645703125,-0.011178085580468178,-0.006641124840825796,-0.010360495187342167
1728303247462517000,2.86651708984375,-0.0030660973861813545,-0.029288645833730698,-0.0025331987999379635
1728303247472577000,2.876576904296875,-0.005618737079203129,-0.03471670299768448,-0.003314037574455142
1728303247482637000,2.886636962890625,-0.010087521746754646,-0.008912800811231136,-0.0023435817565768957
1728303247492697000,2.896697021484375,-0.005583583377301693,-0.020367322489619255,-0.0025094966404139996
1728303247502757000,2.906757080078125,-0.0038802255876362324,-0.03508901223540306,0.0007808388327248394
1728303247512817000,2.91681689453125,-0.007721835747361183,-0.007213704288005829,-0.003409378696233034
1728303247522877000,2.926876953125,-0.001669003046117723,-0.02136148139834404,0.00021172130072955042
1728303247532937000,2.93693701171875,-0.0028509139083325863,-0.023327426984906197,-0.002295911079272628
1728303247542997200,2.946997314453125,-0.005094361025840044,-0.006176403257995844,0.0030000510159879923
1728303247553057000,2.95705712890625,-0.0007030745036900043,-0.01335521973669529,0.007325290702283382
1728303247563117000,2.967116943359375,-0.005667739547789097,-0.029380260035395622,0.004129497334361076
1728303247573177000,2.977177001953125,-0.008020109497010708,-0.00794314406812191,0.0018074874533340335
1728303247583236900,2.98723681640625,-0.00020240024605300277,-0.017184313386678696,0.009414007887244225
1728303247593297000,2.997296875,-0.0060211410745978355,-0.035103391855955124,0.004792091902345419
1728303247603357200,3.007357177734375,-0.009092298336327076,-0.014681474305689335,0.0013126720441505313
1728303247613417000,3.0174169921875,-0.006136721931397915,-0.012606872245669365,0.009939449839293957
1728303247623477000,3.02747705078125,-0.004664793144911528,-0.018188592046499252,0.0012634035665541887
1728303247633537000,3.037537109375,-0.01034558191895485,-0.01727352850139141,0.000010120012120751198
1728303247643596800,3.0475966796875,-0.005319131538271904,-0.0104739461094141,0.004281830508261919
1728303247653656800,3.05765673828125,-0.004722050856798887,-0.03013952635228634,-0.00472418125718832
1728303247663717000,3.067717041015625,-0.012076370418071747,-0.004515655804425478,-0.007606787141412497
1728303247673777200,3.077777099609375,-0.00472498033195734,-0.0006878945278003812,-0.006844590418040752
1728303247683837000,3.0878369140625,-0.003320695599541068,-0.02719886414706707,-0.009863549843430519
1728303247693897000,3.09789697265625,-0.011116034351289272,-0.023058714345097542,-0.009836385026574135
1728303247703957000,3.10795703125,-0.003576359013095498,0.000150202278746292,-0.013366937637329102
1728303247714017000,3.11801708984375,-0.0014729943359270692,-0.01842055283486843,-0.010675814002752304
1728303247724077000,3.1280771484375,-0.007267500273883343,-0.014044712297618389,-0.017131049185991287
1728303247734137000,3.13813720703125,-0.0067628310061991215,-0.010734137147665024,-0.013874802738428116
1728303247744196900,3.14819677734375,-0.0002591255761217326,-0.04012558236718178,-0.014244982041418552
1728303247754257000,3.1582568359375,-0.0037974014412611723,-0.025847576558589935,-0.014665495604276657
1728303247764317000,3.16831689453125,-0.0014950985787436366,-0.006084790453314781,-0.010390589013695717
1728303247774377200,3.178377197265625,0.0037140443455427885,-0.03965393453836441,-0.003938815090805292
1728303247784437000,3.18843701171875,-0.004262122791260481,-0.024335699155926704,-0.015455123037099838
1728303247794497000,3.1984970703125,-0.0034061830956488848,-0.022276276722550392,-0.007309844717383385
1728303247804557000,3.20855712890625,0.00261841993778944,-0.04788842797279358,-0.0008697884040884674
1728303247814616800,3.218616943359375,-0.007084541022777557,-0.015563513152301311,-0.01944640278816223
1728303247824676900,3.2286767578125,-0.0015342470724135637,-0.0494232103228569,0.012345615774393082
1728303247834737200,3.238737060546875,0.00009321063407696784,-0.046427153050899506,-0.0016258598770946264
1728303247844797000,3.248796875,-0.005394765175879002,-0.0205159280449152,-0.007160441018640995
1728303247854857000,3.25885693359375,-0.0026343988720327616,-0.028688902035355568,0.003367567202076316
1728303247864917000,3.2689169921875,-0.0037374801468104124,-0.03363572433590889,0.002213885774835944
1728303247874977000,3.27897705078125,-0.008139952085912228,-0.034151047468185425,0.004427771549671888
1728303247885037000,3.289037109375,-0.0038037928752601147,-0.02479163184762001,0.007267233915627003
1728303247895097000,3.29909716796875,-0.001713744131848216,-0.03780730068683624,0.006871754303574562
1728303247905157000,3.3091572265625,-0.00902438722550869,-0.034331075847148895,0.009429188445210457
1728303247915217000,3.319216796875,-0.004493551794439554,-0.022289859130978584,0.009462211281061172
1728303247925277000,3.32927685546875,-0.006670153234153986,-0.0253951046615839,0.0057194046676158905
1728303247935337000,3.3393369140625,-0.012348811142146587,-0.030662305653095245,0.009751963429152966
1728303247945397000,3.34939697265625,-0.006458165589720011,-0.022102106362581253,0.0156133146956563
1728303247955457000,3.35945703125,-0.0012926984345540404,-0.028001541271805763,0.008844890631735325
1728303247965517000,3.36951708984375,-0.010338124819099903,-0.02702123112976551,0.006828078534454107
1728303247975577000,3.3795771484375,-0.0021752698812633753,-0.005193696822971106,0.012031096033751965
1728303247985636900,3.389636962890625,-0.00015046859334688634,-0.019456256181001663,0.01161804050207138
1728303247995697000,3.39969677734375,-0.007156180217862129,-0.015382951125502586,0.012750948779284954
1728303248005757200,3.409757080078125,-0.004391286056488752,-0.00875088106840849,0.015984559431672096
1728303248015817000,3.41981689453125,0.0014644722687080503,-0.013131514191627502,0.014407701790332794
1728303248025877000,3.429876953125,-0.010728810913860798,-0.010102701373398304,0.01022467389702797
1728303248035937000,3.43993701171875,-0.0046698530204594135,-0.004711132030934095,0.014125140383839607
1728303248045996800,3.449996826171875,0.0011446266435086727,-0.012856676243245602,0.013858024962246418
1728303248056057000,3.46005712890625,-0.008586031384766102,-0.002517219865694642,0.011394068598747253
1728303248066117000,3.4701171875,-0.0010367685463279486,0.007900266908109188,0.011571435257792473
1728303248076177200,3.48017724609375,-0.0008548747282475233,-0.004326837603002787,0.009049421176314354
1728303248086237000,3.49023681640625,-0.007500260602682829,0.007434746716171503,0.003367300843819976
1728303248096297000,3.500296875,-0.001668736687861383,0.004245345015078783,0.00788269005715847
1728303248106357000,3.51035693359375,-0.006409962195903063,-0.011696869507431984,0.005662146955728531
1728303248116417000,3.5204169921875,-0.010186591185629368,0.0016724651213735342,-0.00029081720276735723
1728303248126477000,3.53047705078125,-0.011126686818897724,0.01525858137756586,0.004731904715299606
1728303248136537000,3.540537109375,-0.0036794233601540327,-0.006587062496691942,0.007470166776329279
1728303248146596900,3.550596923828125,-0.01149739883840084,0.01236558984965086,-0.002567820018157363
1728303248156657000,3.560656982421875,-0.008598548360168934,0.01101323589682579,0.0008391620358452201
1728303248166717000,3.570717041015625,-0.004699147772043943,-0.011079548858106136,0.004685831721872091
1728303248176777000,3.58077685546875,-0.00708667142316699,0.005930060520768166,-0.0016460998449474573
1728303248186837000,3.5908369140625,-0.004533232655376196,0.007243798114359379,0.0044288369826972485
1728303248196897000,3.60089697265625,-0.0016860472969710827,-0.003774498123675585,-0.0010692591313272715
1728303248206957000,3.61095703125,-0.007012635935097933,-0.0021883193403482437,0.004492220003157854
1728303248217016800,3.621016845703125,-0.004719121381640434,-0.005792108830064535,0.007168164476752281
1728303248227077000,3.6310771484375,-0.0024000408593565226,-0.004908472299575806,0.0006442186422646046
1728303248237137200,3.64113720703125,-0.010323744267225266,-0.004150270018726587,0.0019859191961586475
1728303248247197000,3.651197021484375,-0.003951332066208124,-0.007567904889583588,0.004821919370442629
1728303248257257000,3.661257080078125,-0.004553738981485367,-0.008384962566196918,0.0020362529903650284
1728303248267317000,3.67131689453125,-0.011396198533475399,0.0009020126308314502,0.006392385344952345
1728303248277376800,3.681376708984375,-0.004974784795194864,-0.00395719101652503,0.007798002101480961
1728303248287437000,3.69143701171875,-0.005074919667094946,-0.00857164990156889,0.0037502634804695845
1728303248297497000,3.7014970703125,-0.00923264678567648,0.002067412016913295,0.0019212043844163418
1728303248307557000,3.71155712890625,-0.002944923471659422,-0.004036819562315941,0.005555886775255203
1728303248317617000,3.721616943359375,-0.004150004126131535,-0.016987772658467293,0.006884271278977394
1728303248327677000,3.731677001953125,-0.006958040874451399,-0.003698331769555807,0.004740426782518625
1728303248337737000,3.741737060546875,-0.008248608559370041,-0.013641776517033577,0.008084557950496674
1728303248347797000,3.751796875,-0.005110339727252722,-0.019483154639601707,0.0007992146420292556
1728303248357857000,3.76185693359375,-0.009987653233110905,-0.00845393817871809,0.0026343988720327616
1728303248367917000,3.7719169921875,-0.0060293967835605145,-0.01684316247701645,0.0051774512976408005
1728303248377976800,3.781976806640625,-0.0031273500062525272,-0.026308836415410042,0.005513275973498821
1728303248388036900,3.792036865234375,-0.007695204112678766,-0.018028534948825836,0.003992877434939146
1728303248398097200,3.80209716796875,-0.00458596320822835,-0.02124563418328762,0.004889297299087048
1728303248408157200,3.8121572265625,-0.0034439999144524336,-0.02442438341677189,0.001982190879061818
1728303248418217000,3.822217041015625,-0.006865895353257656,-0.012258530594408512,0.002100701443850994
1728303248428277000,3.832277099609375,-0.0019528960110619664,-0.029644710943102837,0.007223824504762888
1728303248438337000,3.8423369140625,-0.0029854036401957273,-0.03777667507529259,0.0017627463676035404
1728303248448396800,3.852396728515625,-0.0033039175905287266,-0.021283984184265137,0.0017728663515299559
1728303248458457000,3.86245703125,-0.0025875272694975138,-0.03876097872853279,0.006203833501785994
1728303248468517000,3.87251708984375,-0.0015712650492787361,-0.0361098013818264,0.0033249566331505775
1728303248478577200,3.8825771484375,-0.006741259712725878,-0.018809374421834946,0.0026607641484588385
1728303248488637000,3.892636962890625,-0.0016863135388121009,-0.041190315037965775,0.006346312817186117
1728303248498697000,3.902697021484375,-0.002121740486472845,-0.02977813594043255,0.004763329867273569
1728303248508757000,3.912757080078125,-0.006642988882958889,-0.023897875100374222,0.007865912280976772
1728303248518816000,3.92281591796875,-0.004500209353864193,-0.036976393312215805,0.004338289611041546
1728303248528876000,3.9328759765625,-0.004217648413032293,-0.02888783998787403,0.005647765472531319
1728303248538936000,3.94293603515625,-0.005107143893837929,-0.020294886082410812,0.00851439218968153
1728303248548996000,3.95299609375,-0.005279982928186655,-0.036918070167303085,0.004966262727975845
1728303248559056100,3.96305615234375,-0.009939982555806637,-0.029560022056102753,0.009731190279126167
1728303248569116200,3.9731162109375,-0.0034519892651587725,-0.027159448713064194,0.0056831855326890945
1728303248579176000,3.983176025390625,-0.007180680986493826,-0.021767079830169678,0.005842708982527256
1728303248589236000,3.993236083984375,-0.01004997082054615,-0.027706196531653404,0.01056129764765501
1728303248599296000,4.0032958984375,-0.004999552387744188,-0.0351281613111496,0.0073298183269798756
1728303248609356000,4.01335595703125,-0.006660299375653267,-0.029050560668110847,0.008202003315091133
1728303248619416000,4.023416015625,-0.00875141378492117,-0.025320271030068398,0.009548231028020382
1728303248629476000,4.03347607421875,-0.0052232579328119755,-0.023089606314897537,0.004369981121271849
1728303248639536000,4.0435361328125,-0.005440039094537497,-0.026629213243722916,0.00983478780835867
1728303248649596000,4.053595947265625,-0.005332447588443756,-0.023730097338557243,0.004123106133192778
1728303248659656000,4.063656005859375,-0.008085357025265694,-0.017788585275411606,0.008567389100790024
1728303248669716200,4.07371630859375,-0.003915645647794008,-0.02353568561375141,0.013745373114943504
1728303248679776000,4.08377587890625,-0.006912501063197851,-0.019536150619387627,0.009709352627396584
1728303248689836000,4.0938359375,-0.003145459573715925,-0.021808359771966934,0.012469186447560787
1728303248699896000,4.10389599609375,-0.0060355220921337605,-0.01133654359728098,0.00863503385335207
1728303248709955800,4.113955810546875,-0.0046970173716545105,-0.005108475685119629,0.008622516877949238
1728303248720016100,4.12401611328125,-0.0019526296528056264,-0.013829262927174568,0.010342651978135109
1728303248730076200,4.134076171875,-0.002975017298012972,-0.007418235298246145,0.008816128596663475
1728303248740136200,4.14413623046875,-0.002424541860818863,-0.022479476407170296,0.011322163045406342
1728303248750196000,4.154196044921875,-0.0019507654942572117,-0.011900868266820908,0.010936270467936993
1728303248760256000,4.164256103515625,-0.001957689644768834,-0.014109959825873375,0.008893893100321293
1728303248770316000,4.17431591796875,-0.003686347510665655,-0.009697102010250092,0.007025685161352158
1728303248780376000,4.1843759765625,-0.004503405187278986,-0.0010266485624015331,0.0071010529063642025
1728303248790436000,4.19443603515625,-0.002944923471659422,-0.012551744468510151,0.0046149916015565395
1728303248800496000,4.20449609375,-0.006364156026393175,-0.0035180358681827784,0.009825199842453003
1728303248810556000,4.214555908203125,-0.006359096150845289,0.0019156117923557758,0.0032927324064075947
1728303248820616000,4.224615966796875,-0.004337756894528866,0.0035566515289247036,0.008898153901100159
1728303248830676000,4.234676025390625,-0.008051002398133278,-0.0006767092272639275,0.0006399576086550951
1728303248840736300,4.244736328125,-0.005843774415552616,-0.0030535804107785225,0.009838249534368515
1728303248850796000,4.254796142578125,-0.006147907115519047,0.006144445389509201,0.0007954862085171044
1728303248860856000,4.26485595703125,-0.006068544927984476,-0.005271194502711296,0.013192234560847282
1728303248870916000,4.274916015625,-0.00788641907274723,-0.00643765926361084,0.017954498529434204
1728303248880976000,4.284975830078125,-0.0065740132704377174,0.0004527373821474612,0.01239088922739029
1728303248891036200,4.2950361328125,-0.008902947418391705,-0.011669439263641834,0.0201654564589262
1728303248901096200,4.30509619140625,-0.008504006080329418,-0.011324293911457062,0.016274044290184975
1728303248911156000,4.315156005859375,-0.008974852971732616,-0.01022547297179699,0.021673070266842842
1728303248921216000,4.325216064453125,-0.006283462047576904,-0.014523549005389214,0.016080966219305992
1728303248931275000,4.33527490234375,-0.005733785685151815,-0.007018228527158499,0.021570539101958275
1728303248941335000,4.3453349609375,-0.004849616438150406,-0.012956811115145683,0.014096643775701523
1728303248951395000,4.35539501953125,-0.008198541589081287,-0.006450442597270012,0.015591742470860481
1728303248961455000,4.365455078125,-0.0068152956664562225,-0.0075782909989356995,0.008705607615411282
1728303248971515000,4.375514892578125,-0.004206729121506214,-0.008668056689202785,0.0185270793735981
1728303248981576000,4.385575927734375,-0.005033374298363924,-0.002990197157487273,0.00848696194589138
1728303248991635200,4.39563525390625,-0.007453122641891241,-0.019784890115261078,0.01575392857193947
1728303249001695200,4.4056953125,-0.003940146882086992,-0.026914970949292183,0.015733689069747925
1728303249011755000,4.415755126953125,-0.007779626175761223,-0.015778163447976112,0.02099263295531273
1728303249021815000,4.42581494140625,-0.006452040281146765,-0.0246113371104002,0.01714649610221386
1728303249031875000,4.435875,-0.006879477761685848,-0.025432389229536057,0.017015201970934868
1728303249041934800,4.445934814453125,-0.005671733990311623,-0.029652966186404228,0.012518721632659435
1728303249051995100,4.4559951171875,-0.008389223366975784,-0.025476597249507904,0.019510583952069283
1728303249062055200,4.46605517578125,-0.009186840616166592,-0.02972673624753952,0.018376078456640244
1728303249072115000,4.476114990234375,-0.008458998054265976,-0.03110731951892376,0.018619224429130554
1728303249082175000,4.486175048828125,-0.009809753857553005,-0.0427679717540741,0.01870764046907425
1728303249092235000,4.496235107421875,-0.010069678537547588,-0.018617892637848854,0.015093731693923473
1728303249102295000,4.506294921875,-0.005727660376578569,0.005536445416510105,0.006073072552680969
1728303249112355800,4.51635595703125,-0.009799101389944553,0.04237142577767372,-0.012602344155311584
1728303249122416000,4.526416015625,-0.005798766855150461,-0.04284253716468811,0.02034734934568405
1728303249132476200,4.53647607421875,-0.0395820289850235,0.020245350897312164,0.01612037979066372
1728303249142536200,4.5465361328125,0.0023039006628096104,-0.0120702451094985,0.01561011839658022
1728303249152596000,4.556595947265625,-0.004058391321450472,-0.025614816695451736,0.02021738700568676
1728303249162656000,4.566656005859375,-0.004030960611999035,-0.02467871457338333,0.017952635884284973
1728303249172716000,4.576716064453125,-0.0057377805933356285,-0.01973721943795681,0.016280969604849815
1728303249182776000,4.586776123046875,-0.0035065840929746628,-0.020732708275318146,0.022182799875736237
1728303249192836000,4.596836181640625,-0.008523447439074516,-0.018022410571575165,0.01630999706685543
1728303249202896100,4.606896240234375,-0.007422496099025011,-0.021563349291682243,0.017736919224262238
1728303249212956000,4.616955810546875,-0.0031643679831176996,-0.01841895468533039,0.015077752992510796
1728303249223016000,4.627015869140625,0.12515844404697418,0.10858985781669617,-0.024956215173006058
1728303249233076000,4.637075927734375,-0.08264214545488358,0.17881342768669128,0.005338572897017002
1728303249243136000,4.647135986328125,-0.006542854011058807,-0.013194631785154343,0.0160045325756073
1728303249253196000,4.657196044921875,-0.0035116442013531923,-0.028421254828572273,0.011803396046161652
1728303249263256000,4.667256103515625,-0.011041732504963875,-0.021568674594163895,0.019455723464488983
1728303249273316000,4.677316162109375,-0.005483714863657951,-0.02196948044002056,0.014170680195093155
1728303249283375900,4.6873759765625,-0.0059873186983168125,-0.02647048979997635,0.017898039892315865
1728303249293436200,4.697436279296875,-0.007819307036697865,-0.0438031405210495,0.016222912818193436
1728303249303496200,4.70749609375,-0.006930876523256302,-0.03496304526925087,0.02299080230295658
1728303249313556000,4.717555908203125,-0.003183276392519474,-0.03386182710528374,0.02298574335873127
1728303249323616000,4.727615966796875,-0.003082609036937356,-0.032277513295412064,0.02244991436600685
1728303249333676000,4.737676025390625,-0.0031041805632412434,-0.04050348326563835,0.01901736669242382
1728303249343735800,4.74773583984375,-0.0028969866689294577,-0.03543442487716675,0.02015080861747265
1728303249353796000,4.757796142578125,-0.0029169602785259485,-0.0329907052218914,0.018580075353384018
1728303249363856100,4.767856201171875,-0.005273858085274696,-0.037885330617427826,0.015686551108956337
1728303249373916200,4.777916259765625,-0.00492125516757369,-0.03575426712632179,0.015917712822556496
1728303249383976000,4.787975830078125,0.0006468818173743784,-0.04349075257778168,0.010898187756538391
1728303249394036000,4.798035888671875,-0.0023361248895525932,-0.03230467811226845,0.015873504802584648
1728303249404096000,4.808095947265625,0.0020072245970368385,-0.036371856927871704,0.009454754181206226
1728303249414156000,4.818156005859375,-0.00632021389901638,-0.025553297251462936,0.016928117722272873
1728303249424216000,4.828216064453125,0.0014008227735757828,-0.039569512009620667,0.010281666181981564
1728303249434276000,4.838276123046875,-0.002150502521544695,-0.02562759816646576,0.015006646513938904
1728303249444335900,4.8483359375,-0.0048738508485257626,-0.03533774986863136,0.009097890928387642
1728303249454396000,4.85839599609375,-0.00851599033921957,-0.02953658625483513,0.010367952287197113
1728303249464456200,4.868456298828125,-0.007412642706185579,-0.03477981686592102,0.007492537144571543
1728303249474516000,4.878515869140625,-0.009109076112508774,-0.0322578065097332,0.009197759442031384
1728303249484576000,4.888575927734375,-0.009520001709461212,-0.03687652572989464,0.01483540516346693
1728303249494635800,4.8986357421875,-0.011111240833997726,-0.027185281738638878,0.007823302410542965
1728303249504695800,4.90869580078125,-0.011979697272181511,-0.028556011617183685,0.0163041390478611
1728303249514755800,4.918755859375,-0.011435347609221935,-0.02100461721420288,0.012981578707695007
1728303249524816000,4.92881591796875,-0.010093647055327892,-0.01829564943909645,0.018438927829265594
1728303249534876000,4.9388759765625,-0.009659817442297935,-0.011838816106319427,0.010885138064622879
1728303249544936000,4.94893603515625,-0.011242002248764038,-0.009270197711884975,0.017549965530633926
1728303249554995700,4.95899560546875,-0.011077950708568096,-0.013466806150972843,0.013422331772744656
1728303249565055700,4.9690556640625,-0.0162372924387455,-0.012073706835508347,0.02172420360147953
1728303249575116000,4.979115966796875,-0.01363245490938425,-0.005947371479123831,0.021376661956310272
1728303249585176000,4.989176025390625,-0.017173660919070244,-0.009768208488821983,0.03166152164340019
1728303249595235800,4.99923583984375,-0.015748336911201477,-0.018996860831975937,0.024829182773828506
1728303249605295900,5.0092958984375,-0.015356851741671562,-0.003713511861860752,0.03073713928461075
1728303249615356000,5.01935595703125,-0.01607377454638481,-0.013015134260058403,0.03128015995025635
1728303249625415700,5.029415771484375,-0.019093001261353493,-0.008083226159214973,0.03345915675163269
1728303249635476000,5.03947607421875,-0.016693493351340294,-0.011582354083657265,0.0286478903144598
1728303249645536000,5.049535888671875,-0.01817314513027668,-0.008913333527743816,0.03406262770295143
1728303249655595800,5.059595703125,-0.019632291048765182,-0.0068240840919315815,0.03268630802631378
1728303249665655800,5.06965576171875,-0.02298760786652565,-0.0064975805580616,0.04017378389835358
1728303249675715800,5.0797158203125,-0.024047279730439186,-0.015533419325947762,0.03329510614275932
1728303249685776000,5.08977587890625,-0.02496260777115822,-0.01227397657930851,0.043359458446502686
1728303249695836000,5.0998359375,-0.02557886391878128,-0.006351905409246683,0.041912563145160675
1728303249705896000,5.10989599609375,-0.024939438328146935,-0.0006380933918990195,0.04551155865192413
1728303249715956000,5.1199560546875,-0.028385035693645477,-0.005465605296194553,0.03699769824743271
1728303249726015700,5.130015625,-0.026766100898385048,-0.0035172367934137583,0.03809518739581108
1728303249736075800,5.14007568359375,-0.028743231669068336,-0.005452289711683989,0.0349140428006649
1728303249746136000,5.150135986328125,-0.030073214322328568,-0.004888498689979315,0.03556065633893013
1728303249756195800,5.16019580078125,-0.029288379475474358,-0.00017843178648035973,0.03038799948990345
1728303249766255900,5.170255859375,-0.026732012629508972,-0.011661715805530548,0.036796897649765015
1728303249776316000,5.18031591796875,-0.03393586352467537,-0.020318588241934776,0.036138296127319336
1728303249786375700,5.190375732421875,-0.03287539258599281,-0.028232170268893242,0.03730263188481331
1728303249796435700,5.200435791015625,-0.03260214999318123,-0.02352023869752884,0.03561099246144295
1728303249806496000,5.21049609375,-0.035297270864248276,-0.03329244256019592,0.04158153012394905
1728303249816556000,5.22055615234375,-0.0389213003218174,-0.029934197664260864,0.037931933999061584
1728303249826615800,5.23061572265625,-0.03400776907801628,-0.038176681846380234,0.03663976863026619
1728303249836675800,5.24067578125,-0.03593296557664871,-0.04250325262546539,0.03436969220638275
1728303249846736000,5.25073583984375,-0.0366983599960804,-0.05192232131958008,0.03604668378829956
1728303249856796000,5.2607958984375,-0.038419295102357864,-0.04392937570810318,0.03436356782913208
1728303249866856000,5.27085595703125,-0.04084596782922745,-0.06253688037395477,0.03446023911237717
1728303249876916000,5.280916015625,-0.046728089451789856,-0.054971907287836075,0.037690918892621994
1728303249886975700,5.290975830078125,-0.04611023887991905,-0.06529032438993454,0.034034665673971176
1728303249897035800,5.301035888671875,-0.049441318958997726,-0.05922231078147888,0.036316994577646255
1728303249907095800,5.311095703125,-0.04847805202007294,-0.0643686056137085,0.031376030296087265
1728303249917156000,5.321156005859375,-0.04848923906683922,-0.04941175878047943,0.029714219272136688
1728303249927215900,5.3312158203125,-0.050877559930086136,-0.06443784385919571,0.026934677734971046
1728303249937276000,5.34127587890625,-0.05479853227734566,-0.05318838730454445,0.0207686610519886
1728303249947336000,5.3513359375,-0.05660495534539223,-0.06571456789970398,0.01392993051558733
1728303249957395700,5.361395751953125,-0.06301971524953842,-0.057677410542964935,0.01811215840280056
1728303249967455700,5.371455810546875,-0.06057519465684891,-0.06359495222568512,0.013689713552594185
1728303249977516000,5.38151611328125,-0.0666155144572258,-0.0663374811410904,0.022052304819226265
1728303249987575800,5.391575927734375,-0.06715986132621765,-0.06574013084173203,0.01324256882071495
1728303249997635800,5.4016357421875,-0.06471401453018188,-0.049073271453380585,0.020612601190805435
1728303250007696000,5.41169580078125,-0.05932244658470154,-0.06022392585873604,0.011922173202037811
1728303250017756000,5.421755859375,-0.06214539706707001,-0.0409570187330246,0.012055330909788609
1728303250027816000,5.43181591796875,-0.06494943797588348,-0.05228317901492119,0.007982824929058552
1728303250037876000,5.4418759765625,-0.061340589076280594,-0.03473427891731262,0.013072658330202103
1728303250047936000,5.45193603515625,-0.06169505417346954,-0.041972748935222626,0.006654174067080021
1728303250057995800,5.461995849609375,-0.06547541171312332,-0.03397713974118233,0.010185525752604008
1728303250068055800,5.472055908203125,-0.06650658696889877,-0.039025697857141495,0.0046544065698981285
1728303250078115800,5.48211572265625,-0.06351559609174728,-0.022233666852116585,0.013452958315610886
1728303250088175900,5.49217578125,-0.06657742708921432,-0.024395354092121124,0.010902981273829937
1728303250098236000,5.50223583984375,-0.0659172311425209,-0.012034025974571705,0.01751294732093811
1728303250108296000,5.5122958984375,-0.0655534416437149,-0.016622120514512062,0.006420881487429142
1728303250118356000,5.52235595703125,-0.06791806221008301,-0.002413356676697731,0.010781541466712952
1728303250128415700,5.532415771484375,-0.06552708148956299,0.0009278453071601689,0.0009736517095007002
1728303250138475800,5.542475830078125,-0.07116366177797318,0.011534683406352997,0.001826662220992148
1728303250148536000,5.5525361328125,-0.0748678520321846,-0.0025422535836696625,-0.0044996771030128
1728303250158595800,5.562595947265625,-0.07306968420743942,0.00475320965051651,0.0019510318525135517
1728303250168656000,5.57265576171875,-0.08433565497398376,-0.019352393224835396,-0.005169461946934462
1728303250178716000,5.5827158203125,-0.08458918333053589,-0.0111045828089118,0.0038242992013692856
1728303250188775700,5.592775634765625,-0.08498413115739822,-0.021209148690104485,0.0033534523099660873
1728303250198836000,5.6028359375,-0.08750561624765396,-0.01793825440108776,0.007954329252243042
1728303250208896000,5.61289599609375,-0.09283380210399628,-0.019537748768925667,-0.001853826455771923
1728303250218956000,5.6229560546875,-0.09089448302984238,0.004268514458090067,0.005921804811805487
1728303250229015800,5.633015869140625,-0.09170408546924591,-0.02209598198533058,0.0001906823308672756
1728303250239075800,5.643075927734375,-0.09675184637308121,-0.012977051548659801,0.0040765004232525826
1728303250249135900,5.653135986328125,-0.09610070288181305,-0.022215822711586952,-0.0008655273704789579
1728303250259196000,5.66319580078125,-0.10105657577514648,-0.011598066426813602,0.00646668765693903
1728303250269256000,5.673255859375,-0.09961900115013123,-0.04303215444087982,0.0024136228021234274
1728303250279316000,5.68331591796875,-0.10192130506038666,-0.03488980606198311,0.005624596029520035
1728303250289375700,5.693375732421875,-0.1042632907629013,-0.044146422296762466,0.005742307752370834
1728303250299435800,5.703435791015625,-0.0961100235581398,-0.02852911315858364,0.010989800095558167
1728303250309495800,5.713495849609375,-0.09754173457622528,-0.03922729566693306,0.0076280920766294
1728303250319556000,5.72355615234375,-0.09773241728544235,-0.027111245319247246,0.008765794336795807
1728303250329616000,5.733615966796875,-0.09700271487236023,-0.036554813385009766,0.00177925790194422
1728303250339676000,5.743676025390625,-0.09547139704227448,-0.03801555931568146,0.008762865327298641
1728303250349736000,5.75373583984375,-0.10316606611013412,-0.047266848385334015,0.004350007511675358
1728303250359795700,5.763795654296875,-0.0977310836315155,-0.04403137415647507,0.011098990216851234
1728303250369856000,5.77385595703125,-0.09894149005413055,-0.0391593873500824,-0.0011448930017650127
1728303250379916000,5.783916015625,-0.10477568209171295,-0.03895166143774986,0.004156128969043493
1728303250389975800,5.793975830078125,-0.10918428003787994,-0.039313849061727524,-0.0032597091048955917
1728303250400035800,5.804035888671875,-0.11133371293544769,-0.0361659936606884,0.00018695391190703958
1728303250410095900,5.814095947265625,-0.11269965022802353,-0.04247821867465973,-0.01011042483150959
1728303250420155600,5.82415576171875,-0.12079406529664993,-0.03160053491592407,-0.0021995047573000193
1728303250430216000,5.8342158203125,-0.11215370148420334,-0.037940457463264465,-0.01426628790795803
1728303250440276000,5.84427587890625,-0.11863716691732407,-0.031381092965602875,-0.005952964071184397
1728303250450336000,5.8543359375,-0.12346441298723221,-0.04373150318861008,-0.009472597390413284
1728303250460395800,5.864395751953125,-0.12368199229240417,-0.035641349852085114,-0.0003281014505773783
1728303250470455800,5.874455810546875,-0.12774091958999634,-0.0524139404296875,-0.00025726135936565697
1728303250480515300,5.884515380859375,-0.13299347460269928,-0.04272669181227684,0.004705006722360849
1728303250490575400,5.894575439453125,-0.13595543801784515,-0.04338795319199562,0.008352206088602543
1728303250500635100,5.90463525390625,-0.13616102933883667,-0.04108059033751488,0.014098241925239563
1728303250510695200,5.914695068359375,-0.14143462479114532,-0.050335343927145004,0.01420423574745655
1728303250520755200,5.924755126953125,-0.1408412754535675,-0.037707164883613586,0.013049755245447159
1728303250530815500,5.9348154296875,-0.13929611444473267,-0.049250636249780655,0.008853944949805737
1728303250540875300,5.944875244140625,-0.13832111656665802,-0.04032212123274803,0.0076027922332286835
1728303250550935300,5.954935302734375,-0.14160799980163574,-0.056162070482969284,0.0002793656021822244
1728303250560995300,5.964995361328125,-0.14298538863658905,-0.06144258752465248,0.0005147890187799931
1728303250571055000,5.97505517578125,-0.14600248634815216,-0.07728467136621475,-0.009166600182652473
1728303250581115100,5.985115234375,-0.1536601334810257,-0.0833636000752449,-0.011188206262886524
1728303250591175400,5.995175537109375,-0.15442445874214172,-0.08918686956167221,-0.018262892961502075
1728303250601235200,6.005235107421875,-0.15664100646972656,-0.09653586149215698,-0.013431386090815067
1728303250611295200,6.015295166015625,-0.1644909381866455,-0.09634091705083847,-0.02051166631281376
1728303250621355300,6.025355224609375,-0.16577458381652832,-0.0853378027677536,-0.021441642194986343
1728303250631415300,6.035415283203125,-0.17043724656105042,-0.07956193387508392,-0.025851570069789886
1728303250641475300,6.045475341796875,-0.17501096427440643,-0.07062862813472748,-0.024167919531464577
1728303250651535400,6.055535400390625,-0.17387166619300842,-0.06501681357622147,-0.027332821860909462
1728303250661595400,6.065595458984375,-0.1766546666622162,-0.056837450712919235,-0.02755972184240818
1728303250671655200,6.0756552734375,-0.18287846446037292,-0.06720380485057831,-0.024026505649089813
1728303250681715200,6.085715087890625,-0.1866641491651535,-0.06274008005857468,-0.02887692116200924
1728303250691775200,6.095775146484375,-0.19232682883739471,-0.06138639524579048,-0.023198263719677925
1728303250701835300,6.105835205078125,-0.19242270290851593,-0.04886980354785919,-0.03313664719462395
1728303250711895300,6.115895263671875,-0.19225385785102844,-0.04567401111125946,-0.02069728821516037
1728303250721955300,6.125955322265625,-0.19445443153381348,-0.030660441145300865,-0.02845161408185959
1728303250732015400,6.136015380859375,-0.19260592758655548,-0.014756841585040092,-0.018322015181183815
1728303250742075100,6.1460751953125,-0.19422540068626404,-0.007394000422209501,-0.024208666756749153
1728303250752135200,6.15613525390625,-0.19427946209907532,0.0006114617572166026,-0.026545856148004532
1728303250762195500,6.166195556640625,-0.20071445405483246,-0.003952131140977144,-0.024521853774785995
1728303250772255200,6.176255126953125,-0.20137491822242737,0.014134727418422699,-0.025418806821107864
1728303250782315300,6.186315185546875,-0.20223166048526764,0.008766327053308487,-0.028563734143972397
1728303250792375300,6.196375244140625,-0.20883896946907043,0.021758291870355606,-0.021771075204014778
1728303250802435000,6.20643505859375,-0.2195427417755127,0.0021252024453133345,-0.028014590963721275
1728303250812495000,6.2164951171875,-0.21745829284191132,0.016470054164528847,-0.02171541564166546
1728303250822555400,6.226555419921875,-0.22070175409317017,0.007056311704218388,-0.025001490488648415
1728303250832615200,6.236615234375,-0.22753195464611053,0.022848324850201607,-0.02196388877928257
1728303250842675200,6.24667529296875,-0.2270003855228424,0.009349825792014599,-0.02563798613846302
1728303250852735200,6.2567353515625,-0.2332087606191635,0.020987840369343758,-0.01593848690390587
1728303250862795300,6.266795166015625,-0.23220820724964142,0.002353169023990631,-0.018794992938637733
1728303250872855300,6.276855224609375,-0.23757420480251312,0.014801316894590855,-0.01961844228208065
1728303250882915300,6.286915283203125,-0.24022485315799713,-0.0007560714147984982,-0.01725994609296322
1728303250892975400,6.296975341796875,-0.24147573113441467,0.019215505570173264,-0.01312245987355709
1728303250903035100,6.30703515625,-0.23749084770679474,0.004906075540930033,-0.017733989283442497
1728303250913095200,6.31709521484375,-0.23782187700271606,0.023967916145920753,-0.012376508675515652
1728303250923155200,6.3271552734375,-0.24100089073181152,0.0009664611425250769,-0.00823982059955597
1728303250933215200,6.33721533203125,-0.2393966019153595,0.01146703865379095,-0.0046781087294220924
1728303250943275300,6.347275146484375,-0.23192830383777618,0.003596598980948329,-0.0035028557758778334
1728303250953335300,6.357335205078125,-0.23954574763774872,-0.007000385317951441,-0.0007534082396887243
1728303250963395300,6.367395263671875,-0.2378690242767334,-0.016038887202739716,-0.0014503574930131435
1728303250973455000,6.377455078125,-0.23383992910385132,-0.02997574210166931,0.0017363809747621417
1728303250983515100,6.38751513671875,-0.24038171768188477,-0.03720222786068916,0.007385744713246822
1728303250993575400,6.397575439453125,-0.240330308675766,-0.041303765028715134,0.015106781385838985
1728303251003635200,6.40763525390625,-0.2416461855173111,-0.05407681688666344,0.010385262779891491
1728303251013695200,6.4176953125,-0.24579006433486938,-0.06580457836389542,0.019412845373153687
1728303251023755300,6.42775537109375,-0.2502005100250244,-0.05756901949644089,0.022401180118322372
1728303251033815000,6.43781494140625,-0.25410524010658264,-0.06923259794712067,0.025743979960680008
1728303251043875300,6.447875244140625,-0.26674726605415344,-0.061651114374399185,0.03375529870390892
1728303251053935400,6.457935302734375,-0.26314082741737366,-0.07147924602031708,0.0324772484600544
1728303251063995400,6.467995361328125,-0.2700788974761963,-0.051473043859004974,0.032348617911338806
1728303251074055200,6.47805517578125,-0.2743151783943176,-0.05540866404771805,0.0301352646201849
1728303251084115200,6.488115234375,-0.28250226378440857,-0.05456097796559334,0.028809543699026108
1728303251094175200,6.49817529296875,-0.2886536419391632,-0.06206097453832626,0.022524749860167503
1728303251104235300,6.5082353515625,-0.2956005036830902,-0.04878085479140282,0.026387132704257965
1728303251114295300,6.51829541015625,-0.3051561713218689,-0.04742264375090599,0.016266055405139923
1728303251124355300,6.528355224609375,-0.302416056394577,-0.03302852436900139,0.015352590940892696
1728303251134415000,6.5384150390625,-0.3131243586540222,-0.04278288409113884,0.02214152179658413
1728303251144475100,6.54847509765625,-0.3141233026981354,-0.029276927933096886,0.013975470326840878
1728303251154535200,6.55853515625,-0.3132348656654358,-0.03647545352578163,0.017224792391061783
1728303251164595500,6.568595458984375,-0.32291173934936523,-0.045934200286865234,0.011121094226837158
1728303251174655200,6.5786552734375,-0.3227823078632355,-0.04915636032819748,0.015682289376854897
1728303251184715300,6.58871533203125,-0.3223484754562378,-0.05720975995063782,0.0086041409522295
1728303251194775300,6.598775390625,-0.3267293870449066,-0.05108795315027237,0.013354155234992504
1728303251204835000,6.6088349609375,-0.32892754673957825,-0.05030018836259842,0.006730606779456139
1728303251214895400,6.618895263671875,-0.33040693402290344,-0.04440554603934288,0.00896712951362133
1728303251224955400,6.628955322265625,-0.3371939957141876,-0.04747696965932846,0.0036008600145578384
1728303251235015200,6.63901513671875,-0.3387700617313385,-0.052685316652059555,0.0065292720682919025
1728303251245075200,6.6490751953125,-0.3449275493621826,-0.033302295953035355,0.004309260752052069
1728303251255135200,6.65913525390625,-0.33850693702697754,-0.02773309499025345,0.007459247950464487
1728303251265195300,6.6691953125,-0.3456716537475586,-0.0015363775892183185,0.006146842148154974
1728303251275255300,6.67925537109375,-0.35429656505584717,-0.0018793927738443017,0.020383035764098167
1728303251285315300,6.6893154296875,-0.3609786927700043,0.012686766684055328,0.028121117502450943
1728303251295375400,6.699375244140625,-0.35775041580200195,0.020014187321066856,0.028117654845118523
1728303251305435100,6.70943505859375,-0.3644344210624695,-0.00004367584188003093,0.03176086023449898
1728303251315495200,6.7194951171875,-0.3728950023651123,0.003338006092235446,0.035838156938552856
1728303251325555200,6.72955517578125,-0.3676035702228546,-0.0031308121979236603,0.045048169791698456
1728303251335615200,6.739615234375,-0.37544605135917664,-0.01552329957485199,0.036929257214069366
1728303251345675300,6.74967529296875,-0.3835015892982483,-0.03187510743737221,0.03415530547499657
1728303251355735300,6.7597353515625,-0.3833433985710144,-0.028436169028282166,0.04020307958126068
1728303251365795000,6.769795166015625,-0.3913688361644745,-0.021914886310696602,0.032952357083559036
1728303251375855000,6.779855224609375,-0.3931129276752472,-0.029327262192964554,0.03133049234747887
1728303251385915400,6.789915283203125,-0.4027535915374756,-0.026103239506483078,0.024530110880732536
1728303251395975400,6.799975341796875,-0.4046609401702881,-0.030229274183511734,0.018567824736237526
1728303251406035200,6.81003515625,-0.4034571945667267,-0.016653545200824738,0.020002203062176704
1728303251416095200,6.82009521484375,-0.4107009768486023,-0.02689632959663868,0.016623452305793762
1728303251426155300,6.8301552734375,-0.4095161557197571,-0.016083361580967903,0.009984723292291164
1728303251436215000,6.840215087890625,-0.4075331389904022,-0.01841709017753601,0.0049409628845751286
1728303251446275300,6.850275390625,-0.40961548686027527,-0.027115240693092346,0.01264016143977642
1728303251456335400,6.86033544921875,-0.4217589497566223,-0.04676857218146324,0.005935387220233679
1728303251466395100,6.87039501953125,-0.4159383475780487,-0.054673098027706146,-0.00040799626731313765
1728303251476456200,6.880456298828125,-0.41202643513679504,-0.07524415105581284,0.012476110830903053
1728303251486516200,6.89051611328125,-0.41972243785858154,-0.06328655779361725,0.003855724586173892
1728303251496576000,6.900575927734375,-0.4182502329349518,-0.08045169711112976,0.01757047139108181
1728303251506636000,6.910635986328125,-0.42082712054252625,-0.07521139830350876,0.00421391986310482
1728303251516696300,6.9206962890625,-0.4256455898284912,-0.09422530233860016,0.013686517253518105
1728303251526756000,6.930756103515625,-0.44012758135795593,-0.09053682535886765,0.015800267457962036
1728303251536816000,6.940816162109375,-0.44078829884529114,-0.08613701164722443,0.01118953712284565
1728303251546876200,6.950876220703125,-0.44639188051223755,-0.07892011851072311,0.011173025704920292
1728303251556936000,6.96093603515625,-0.45342740416526794,-0.09618831425905228,0.010698450729250908
1728303251566996200,6.970996337890625,-0.46198999881744385,-0.09734519571065903,0.017733190208673477
1728303251577056300,6.98105615234375,-0.4629809558391571,-0.09823974967002869,0.008900816552340984
1728303251587116300,6.9911162109375,-0.4705294370651245,-0.09839554876089096,0.00965742114931345
1728303251597176000,7.001176025390625,-0.4724183976650238,-0.1142410859465599,0.010924287140369415
1728303251607236000,7.011236083984375,-0.48403698205947876,-0.10637357831001282,0.004985703621059656
1728303251617296100,7.021296142578125,-0.4904845058917999,-0.11471406370401382,0.01435310672968626
1728303251627356200,7.031356201171875,-0.48664793372154236,-0.10387606173753738,0.004507932811975479
1728303251637416200,7.041416259765625,-0.4975735545158386,-0.09457550942897797,0.004631503485143185
1728303251647476200,7.051476318359375,-0.5087867975234985,-0.08439584076404572,0.000532632227987051
1728303251657536000,7.061535888671875,-0.5046261548995972,-0.08795462548732758,-0.006568686570972204
1728303251667596000,7.071595947265625,-0.5148712992668152,-0.07494162023067474,-0.005900765769183636
1728303251677656000,7.081656005859375,-0.5193153619766235,-0.08472660183906555,-0.00740198977291584
1728303251687716400,7.09171630859375,-0.5243881344795227,-0.07658158987760544,-0.002502572489902377
1728303251697776000,7.101776123046875,-0.5202479958534241,-0.09275257587432861,-0.013793310150504112
1728303251707836200,7.111836181640625,-0.5292100310325623,-0.09704825282096863,-0.009698433801531792
1728303251717896200,7.121896240234375,-0.52309650182724,-0.10273410379886627,-0.018195515498518944
1728303251727956000,7.1319560546875,-0.5258443355560303,-0.09751111268997192,-0.020673053339123726
1728303251738016300,7.142016357421875,-0.5296012759208679,-0.09302661567926407,-0.02335459180176258
1728303251748076300,7.152076171875,-0.529525101184845,-0.09042896330356598,-0.03874526545405388
1728303251758136000,7.162135986328125,-0.5378929972648621,-0.08373138308525085,-0.027187678962945938
1728303251768196000,7.172196044921875,-0.5327169299125671,-0.0821731686592102,-0.04308834671974182
1728303251778256100,7.182256103515625,-0.5398699045181274,-0.0759512260556221,-0.04141881316900253
1728303251788316000,7.19231591796875,-0.5483145117759705,-0.08484165370464325,-0.04399595409631729
1728303251798376200,7.202376220703125,-0.5444151163101196,-0.06454890221357346,-0.057910703122615814
1728303251808436200,7.212436279296875,-0.5535880923271179,-0.05422355607151985,-0.049069806933403015
1728303251818496300,7.222496337890625,-0.5587953925132751,-0.06952421367168427,-0.049922820180654526
1728303251828556000,7.23255615234375,-0.5526972413063049,-0.04796060174703598,-0.05062029883265495
1728303251838616000,7.242615966796875,-0.5617943406105042,-0.0549231693148613,-0.043469712138175964
1728303251848676000,7.252676025390625,-0.5634079575538635,-0.04472272843122482,-0.05378387123346329
1728303251858736000,7.262736083984375,-0.5689013004302979,-0.033482592552900314,-0.04490009695291519
1728303251868796200,7.272796142578125,-0.5708861351013184,-0.041422806680202484,-0.04122999310493469
1728303251878856200,7.282856201171875,-0.5709449648857117,-0.031126493588089943,-0.04111947491765022
1728303251888916000,7.292916015625,-0.5699047446250916,-0.022840600460767746,-0.043355997651815414
1728303251898976000,7.30297607421875,-0.5768236517906189,-0.028365861624479294,-0.03212038427591324
1728303251909036000,7.3130361328125,-0.577568531036377,-0.01728018745779991,-0.031083617359399796
1728303251919096300,7.323096435546875,-0.5763146877288818,0.005533515941351652,-0.04150110483169556
1728303251929156000,7.333156005859375,-0.5778039693832397,0.019395269453525543,-0.03905632346868515
1728303251939216100,7.343216064453125,-0.5770074129104614,0.02376817911863327,-0.04554484784603119
1728303251949276200,7.353276123046875,-0.5706232786178589,0.039632365107536316,-0.04542074352502823
1728303251959336000,7.3633359375,-0.5783206224441528,0.04036207124590874,-0.05218570679426193
1728303251969396200,7.373396240234375,-0.5735839009284973,0.05277319997549057,-0.05758260190486908
1728303251979456300,7.383456298828125,-0.5765551924705505,0.06831008195877075,-0.04921521618962288
1728303251989516000,7.39351611328125,-0.5780037045478821,0.06165777146816254,-0.05353885889053345
1728303251999576000,7.403576171875,-0.5791605710983276,0.06362611055374146,-0.05149275064468384
1728303252009636000,7.413635986328125,-0.5843510627746582,0.05518948659300804,-0.05944069102406502
1728303252019696000,7.423696044921875,-0.5815803408622742,0.06255073100328445,-0.06000101938843727
1728303252029756200,7.433756103515625,-0.5835627913475037,0.05571705847978592,-0.0533047653734684
1728303252039816200,7.443816162109375,-0.584732711315155,0.04165903106331825,-0.059001535177230835
1728303252049876200,7.453876220703125,-0.5916776657104492,0.04042758420109749,-0.05456018075346947
1728303252059936000,7.46393603515625,-0.5866219401359558,0.04204518720507622,-0.05911045894026756
1728303252069996000,7.47399609375,-0.5940508246421814,0.03571991249918938,-0.05042322725057602
1728303252080056000,7.48405615234375,-0.5902952551841736,0.034454647451639175,-0.05945906415581703
1728303252090116000,7.4941162109375,-0.5955507159233093,0.02582467347383499,-0.06105749309062958
1728303252100176100,7.504176025390625,-0.5965147614479065,0.02954750508069992,-0.05537084862589836
1728303252110236200,7.514236083984375,-0.5971672534942627,0.034441329538822174,-0.06229053810238838
1728303252120296200,7.524296142578125,-0.604013204574585,0.010686999186873436,-0.05426297336816788
1728303252130356000,7.53435595703125,-0.6033817529678345,0.01960565894842148,-0.05838022008538246
1728303252140416300,7.544416259765625,-0.5946204662322998,0.0020580908749252558,-0.05813627317547798
1728303252150476300,7.554476318359375,-0.5990890264511108,0.004226969089359045,-0.05977172031998634
1728303252160536000,7.5645361328125,-0.5892465114593506,-0.009890447370707989,-0.058630555868148804
1728303252170596000,7.57459619140625,-0.5948793292045593,-0.0029907298739999533,-0.053164951503276825
1728303252180656000,7.58465625,-0.5928977131843567,-0.015036473982036114,-0.06457260251045227
1728303252190716000,7.5947158203125,-0.5894352793693542,-0.01363298762589693,-0.06600245088338852
1728303252200776200,7.604776123046875,-0.5934383273124695,-0.02099210023880005,-0.05778500437736511
1728303252210836200,7.614836181640625,-0.5864256620407104,-0.025412416085600853,-0.061406102031469345
1728303252220896300,7.624896240234375,-0.5888664722442627,-0.02659645676612854,-0.05907423794269562
1728303252230956000,7.6349560546875,-0.5818783044815063,-0.043522175401449203,-0.06137680634856224
1728303252241017000,7.64501708984375,-0.583467423915863,-0.022698387503623962,-0.054612379521131516
1728303252251076000,7.655076171875,-0.5888803005218506,-0.04723675549030304,-0.05467949062585831
1728303252261136100,7.66513623046875,-0.5840528011322021,-0.0371343195438385,-0.05796929448843002
1728303252271196200,7.675196044921875,-0.5822506546974182,-0.042393796145915985,-0.05331382155418396
1728303252281256200,7.685256103515625,-0.5803667306900024,-0.048349156975746155,-0.05542304366827011
1728303252291316000,7.69531591796875,-0.5818679332733154,-0.0402105376124382,-0.056058209389448166
1728303252301376000,7.7053759765625,-0.5844306945800781,-0.05663079023361206,-0.05627205967903137
1728303252311436300,7.715436279296875,-0.5817267894744873,-0.0510765016078949,-0.05121951177716255
1728303252321496000,7.72549609375,-0.5876717567443848,-0.05272499471902847,-0.05639802664518356
1728303252331556000,7.73555615234375,-0.5840660929679871,-0.05865399166941643,-0.05669603496789932
1728303252341617200,7.7456171875,-0.583613395690918,-0.03635188192129135,-0.0546315535902977
1728303252351676200,7.75567626953125,-0.5881276726722717,-0.05161019787192345,-0.05517670139670372
1728303252361737000,7.765737060546875,-0.590050220489502,-0.05122563615441322,-0.044626589864492416
1728303252371797000,7.775796875,-0.5868043899536133,-0.04205557331442833,-0.053768955171108246
1728303252381857300,7.785857177734375,-0.5904132127761841,-0.05488455295562744,-0.04071493819355965
1728303252391917300,7.795917236328125,-0.5858368277549744,-0.05150846391916275,-0.0371130146086216
1728303252401977000,7.80597705078125,-0.5913189649581909,-0.06856494396924973,-0.03286899998784065
1728303252412037000,7.816037109375,-0.5855523943901062,-0.05848008766770363,-0.024992967024445534
1728303252422097200,7.82609716796875,-0.5879588723182678,-0.05708512291312218,-0.028916602954268456
1728303252432157000,7.836156982421875,-0.5890321135520935,-0.06301864981651306,-0.015355786308646202
1728303252442217200,7.84621728515625,-0.5883373022079468,-0.06756333261728287,-0.01583169400691986
1728303252452277200,7.85627734375,-0.584140956401825,-0.06328922510147095,-0.0160647202283144
1728303252462337000,7.8663369140625,-0.5901697874069214,-0.06083671748638153,-0.011138671077787876
1728303252472397000,7.87639697265625,-0.5854946374893188,-0.062494534999132156,-0.010542389005422592
1728303252482456800,7.886456787109375,-0.5844016671180725,-0.05649843066930771,-0.004485561978071928
1728303252492517000,7.89651708984375,-0.5831260085105896,-0.054727692157030106,-0.013304353691637516
1728303252502577200,7.9065771484375,-0.5858160853385925,-0.07030186057090759,-0.00942306313663721
1728303252512637000,7.916636962890625,-0.5860450863838196,-0.05823161453008652,-0.006927947048097849
1728303252522696000,7.926696044921875,-0.5791552662849426,-0.050332944840192795,-0.016348347067832947
1728303252532756000,7.936755859375,-0.5821142792701721,-0.055755939334630966,-0.008787100203335285
1728303252542816000,7.94681591796875,-0.5824010968208313,-0.06522481143474579,-0.013977601192891598
1728303252552876000,7.9568759765625,-0.581527054309845,-0.06397738307714462,-0.016292421147227287
1728303252562936000,7.96693603515625,-0.5770710706710815,-0.05829153582453728,-0.021450430154800415
1728303252572995800,7.976995849609375,-0.5805438160896301,-0.06011579930782318,-0.021617943421006203
1728303252583056000,7.987055908203125,-0.5786985158920288,-0.07363853603601456,-0.013077186420559883
1728303252593116200,7.9971162109375,-0.5780372619628906,-0.04463404789566994,-0.025241173803806305
1728303252603176200,8.00717626953125,-0.5751652717590332,-0.05477403104305267,-0.019780095666646957
1728303252613236000,8.017236083984375,-0.5805560350418091,-0.038186535239219666,-0.0186621006578207
1728303252623296000,8.0272958984375,-0.5738323926925659,-0.045818619430065155,-0.02377670258283615
1728303252633356000,8.03735595703125,-0.5725950598716736,-0.028140557929873466,-0.02341238223016262
1728303252643415800,8.047415771484374,-0.5756348371505737,-0.04388197138905525,-0.019663449376821518
1728303252653476000,8.05747607421875,-0.5767269730567932,-0.024776186794042587,-0.02828756347298622
1728303252663536000,8.0675361328125,-0.5665273070335388,-0.0193670392036438,-0.02947799675166607
1728303252673596000,8.077595947265625,-0.567692756652832,-0.04373842477798462,-0.025071531534194946
1728303252683656000,8.087656005859374,-0.5630558729171753,-0.02666063979268074,-0.030340861529111862
1728303252693716000,8.097716064453126,-0.559192955493927,-0.03273158147931099,-0.03159760683774948
1728303252703776000,8.10777587890625,-0.5638148784637451,-0.02869556099176407,-0.03319230675697327
1728303252713836000,8.1178359375,-0.553956151008606,-0.015034076757729053,-0.03597238287329674
1728303252723896000,8.12789599609375,-0.5562475323677063,-0.029934994876384735,-0.04043664038181305
1728303252733956000,8.1379560546875,-0.5560808181762695,-0.013578658923506737,-0.04631343483924866
1728303252744016000,8.148015869140625,-0.5523292422294617,-0.013709953054785728,-0.04344601184129715
1728303252754076000,8.158075927734375,-0.5529518723487854,-0.0016200009267777205,-0.04972121864557266
1728303252764136200,8.16813623046875,-0.5499201416969299,0.0026972496416419744,-0.048890843987464905
1728303252774196000,8.178196044921876,-0.548352062702179,-0.007661914452910423,-0.05757195129990578
1728303252784256000,8.188256103515625,-0.5428653955459595,0.00007110639853635803,-0.04959098994731903
1728303252794316000,8.19831591796875,-0.5363031029701233,-0.0011496866354718804,-0.05464193969964981
1728303252804375800,8.208375732421874,-0.544916033744812,-0.005496231839060783,-0.051004860550165176
1728303252814435800,8.218435791015626,-0.5379832983016968,0.013828463852405548,-0.05379798263311386
1728303252824496000,8.22849609375,-0.5334042906761169,-0.0023845944087952375,-0.051474910229444504
1728303252834556200,8.23855615234375,-0.5369513034820557,-0.0008719189208932221,-0.04921068996191025
1728303252844616000,8.248615966796875,-0.5331935882568359,-0.00030067088664509356,-0.043293945491313934
1728303252854676000,8.258676025390624,-0.5213422775268555,0.00583685003221035,-0.04490489140152931
1728303252864736000,8.268736083984376,-0.5268656611442566,0.004687163513153791,-0.03870265558362007
1728303252874796000,8.278796142578125,-0.5271338224411011,0.00455666845664382,-0.041310686618089676
1728303252884856000,8.28885595703125,-0.5202400088310242,0.002986735198646784,-0.03868987038731575
1728303252894916000,8.298916015625,-0.521000325679779,0.017357418313622475,-0.033608295023441315
1728303252904976000,8.308975830078126,-0.5204804539680481,-0.0037412086967378855,-0.029769612476229668
1728303252915036000,8.319035888671875,-0.5178410410881042,0.004591289907693863,-0.024568459019064903
1728303252925096000,8.329095947265625,-0.5134364366531372,-0.0019627497531473637,-0.02148185670375824
1728303252935156200,8.33915625,-0.5134745240211487,-0.0034165694378316402,-0.01810949482023716
1728303252945216000,8.349216064453126,-0.5034889578819275,0.015690546482801437,-0.019352659583091736
1728303252955276000,8.359276123046875,-0.49993205070495605,-0.004978513345122337,-0.014207432046532631
1728303252965336000,8.369336181640625,-0.5040141344070435,0.006616889964789152,-0.011580223217606544
1728303252975395800,8.379395751953124,-0.49515488743782043,0.010459032841026783,-0.009046492166817188
1728303252985455900,8.389455810546876,-0.4901103079319,0.005873601883649826,-0.00777669670060277
1728303252995516200,8.39951611328125,-0.4913500249385834,-0.003725496120750904,-0.0018716695485636592
1728303253005576000,8.409575927734375,-0.4929378032684326,0.00415319949388504,0.002025067573413253
1728303253015636000,8.419635986328124,-0.4838649332523346,0.0036509274505078793,-0.0016695356462150812
1728303253025696000,8.429696044921876,-0.48420822620391846,0.011188206262886524,0.001996039180085063
1728303253035756000,8.439756103515625,-0.4765143394470215,0.014942730776965618,-0.0001715075777610764
1728303253045816000,8.449816162109375,-0.4796784520149231,0.005133509170264006,0.004832572303712368
1728303253055876000,8.4598759765625,-0.47258326411247253,0.022008096799254417,0.0032288164366036654
1728303253065936100,8.46993603515625,-0.47009986639022827,0.017532121390104294,0.0030059099663048983
1728303253075996000,8.479995849609375,-0.46719568967819214,0.023631026968359947,-0.004838697146624327
1728303253086056000,8.490055908203125,-0.4601079523563385,0.03158748894929886,-0.002270611235871911
1728303253096116000,8.500115966796875,-0.4588884711265564,0.015577361918985844,-0.0025987126864492893
1728303253106176000,8.510176025390624,-0.456226110458374,0.027042003348469734,-0.00818203017115593
1728303253116236800,8.52023681640625,-0.4440501630306244,0.03326527774333954,-0.011128817684948444
1728303253126297000,8.530297119140625,-0.4475197196006775,0.022272814065217972,-0.004554538056254387
1728303253136357000,8.540357177734375,-0.44655510783195496,0.027152791619300842,-0.014581073075532913
1728303253146417000,8.5504169921875,-0.4358987510204315,0.030421555042266846,-0.011727229692041874
1728303253156477000,8.560476806640626,-0.4364801049232483,0.02514876239001751,-0.011672368273139
1728303253166537000,8.570536865234375,-0.43369072675704956,0.03131185099482536,-0.009829727932810783
1728303253176597000,8.580596923828125,-0.4237552583217621,0.028360800817608833,-0.010782873257994652
1728303253186657000,8.590656982421875,-0.4303806722164154,0.015446866862475872,-0.006873086094856262
1728303253196717000,8.600717041015624,-0.42032432556152344,0.02058037556707859,-0.010261425748467445
1728303253206777000,8.610777099609376,-0.41143813729286194,0.01435390580445528,-0.008377505466341972
1728303253216836900,8.6208369140625,-0.406535804271698,0.007644603960216045,-0.011535216122865677
1728303253226897000,8.63089697265625,-0.4081462025642395,-0.0011829761788249016,-0.0019361181184649467
1728303253236957200,8.640957275390624,-0.4028222858905792,-0.0018346516881138086,-0.004536694847047329
1728303253247017000,8.651016845703126,-0.39393290877342224,-0.0025041704066097736,-0.009350358508527279
1728303253257077000,8.661076904296875,-0.39513692259788513,-0.019104985520243645,-0.001969141187146306
1728303253267137000,8.671136962890625,-0.39187854528427124,-0.008674181997776031,-0.008676312863826752
1728303253277197000,8.681197021484374,-0.38754239678382874,-0.008243015967309475,-0.011334946379065514
1728303253287256800,8.6912568359375,-0.3876907527446747,-0.009355951100587845,-0.01079831924289465
1728303253297317000,8.701317138671875,-0.38337934017181396,-0.01299276389181614,-0.00956634059548378
1728303253307377200,8.711377197265625,-0.37144091725349426,-0.02983832359313965,-0.009338640607893467
1728303253317437000,8.72143701171875,-0.36897963285446167,-0.0166745837777853,-0.009151154197752476
1728303253327497000,8.7314970703125,-0.36817827820777893,-0.027811923995614052,-0.01805410161614418
1728303253337557000,8.741556884765625,-0.36358246207237244,-0.04536028951406479,-0.019151058048009872
1728303253347617000,8.751616943359375,-0.3551282584667206,-0.03266873210668564,-0.01817687414586544
1728303253357677000,8.761677001953124,-0.35749927163124084,-0.0288766548037529,-0.020123910158872604
1728303253367737000,8.771737060546876,-0.35306990146636963,-0.039511457085609436,-0.014884407632052898
1728303253377796900,8.781796875,-0.3475070893764496,-0.03963689133524895,-0.01883574016392231
1728303253387857000,8.79185693359375,-0.3409184515476227,-0.016747554764151573,-0.014991998672485352
1728303253397917000,8.8019169921875,-0.33892425894737244,-0.03260641172528267,-0.01296267006546259
1728303253407977200,8.811977294921874,-0.32864925265312195,-0.02395034022629261,-0.013454821892082691
1728303253418037000,8.822037109375,-0.32645800709724426,-0.006551109720021486,-0.01619867794215679
1728303253428097000,8.832096923828125,-0.3210635185241699,-0.008981510996818542,-0.004827245604246855
1728303253438157000,8.842156982421875,-0.3137587308883667,-0.008687231689691544,-0.005607551895081997
1728303253448216800,8.852216796875,-0.31501200795173645,0.004777977243065834,-0.005142031237483025
1728303253458276900,8.86227685546875,-0.3047551214694977,0.01420530118048191,-0.010044111870229244
1728303253468337200,8.872337158203125,-0.2964114248752594,-0.012675847858190536,-0.0018423747969791293
1728303253478397200,8.882397216796875,-0.29351070523262024,-0.0016173376934602857,-0.004141747951507568
1728303253488457200,8.892457275390624,-0.28452813625335693,0.015868445858359337,-0.006681338418275118
1728303253498517000,8.90251708984375,-0.28306660056114197,-0.014672153629362583,-0.005030444823205471
1728303253508577000,8.912576904296875,-0.2787221670150757,-0.01607031375169754,-0.002098304685205221
1728303253518637000,8.922636962890625,-0.27093350887298584,0.017958493903279305,-0.0077471355907619
1728303253528697000,8.932697021484374,-0.2658628225326538,0.007419033907353878,-0.0051721250638365746
1728303253538757000,8.942757080078126,-0.25926777720451355,0.00015659387281630188,-0.002517752582207322
1728303253548817200,8.952817138671875,-0.2530474364757538,0.027787156403064728,-0.006961236707866192
1728303253558877200,8.962877197265625,-0.2508660554885864,0.03997058421373367,-0.011517372913658619
1728303253568937000,8.97293701171875,-0.25193583965301514,0.0223295409232378,-0.004638161510229111
1728303253578997200,8.982997314453126,-0.24025601148605347,0.025002555921673775,-0.004209392238408327
1728303253589057300,8.993057373046875,-0.23539920151233673,0.055694688111543655,-0.01296586636453867
1728303253599117000,9.003116943359375,-0.2338969111442566,0.028742698952555656,-0.008323709480464458
1728303253609177000,9.013177001953125,-0.2293303906917572,0.02852565050125122,-0.004911934491246939
1728303253619237000,9.023237060546874,-0.2212226688861847,0.025375664234161377,-0.01158927846699953
1728303253629297000,9.033296875,-0.2227230966091156,0.02636263146996498,-0.01684449426829815
1728303253639357200,9.043357177734375,-0.212253138422966,0.02448190748691559,-0.009971141815185547
1728303253649417200,9.053417236328125,-0.20734547078609467,-0.0008285093936137855,-0.0035417377948760986
1728303253659477200,9.063477294921874,-0.20814335346221924,-0.017410149797797203,-0.006411826703697443
1728303253669537000,9.073537109375,-0.20611189305782318,0.005306880921125412,-0.014690794982016087
1728303253679597000,9.08359716796875,-0.1926107257604599,0.007531952112913132,-0.015506521798670292
1728303253689657000,9.093656982421875,-0.19398172199726105,-0.008766060695052147,-0.005841111298650503
1728303253699717000,9.103717041015624,-0.18628571927547455,-0.011124024167656898,-0.007215036079287529
1728303253709777200,9.113777099609376,-0.18073515594005585,0.006956176832318306,-0.013233779929578304
1728303253719837200,9.123837158203125,-0.1838688999414444,0.0022114890161901712,-0.007938350550830364
1728303253729897000,9.13389697265625,-0.17410814762115479,-0.008087221533060074,-0.006299174856394529
1728303253739957000,9.14395703125,-0.16929608583450317,-0.020624052733182907,-0.0031646343413740396
1728303253750017300,9.154017333984376,-0.1739819198846817,-0.025543177500367165,-0.004959871061146259
1728303253760077300,9.164077392578125,-0.16553249955177307,-0.014992531388998032,-0.00768721429631114
1728303253770137000,9.17413720703125,-0.1529538631439209,-0.023667512461543083,-0.0020240023732185364
1728303253780197000,9.184197021484374,-0.16054600477218628,-0.04150882735848427,0.0017044231062754989
1728303253790257200,9.194257080078126,-0.15720613300800323,-0.03524480760097504,-0.0041095237247645855
1728303253800317000,9.20431689453125,-0.14879773557186127,-0.013351225294172764,-0.009437443688511848
1728303253810377200,9.214377197265625,-0.1479111611843109,-0.006847519893199205,-0.012798619456589222
1728303253820437200,9.224437255859375,-0.1415419578552246,-0.023373233154416084,-0.0032802154310047626
1728303253830497000,9.2344970703125,-0.14033980667591095,-0.017299627885222435,-0.012091017328202724
1728303253840557000,9.24455712890625,-0.14586080610752106,-0.005766808986663818,-0.021740715950727463
1728303253850617000,9.2546171875,-0.13851606845855713,-0.011803662404417992,-0.018125474452972412
1728303253860677000,9.264677001953125,-0.1336003988981247,-0.021085843443870544,-0.01521996594965458
1728303253870737200,9.274737060546874,-0.13591842353343964,-0.023247532546520233,-0.01859312504529953
1728303253880797200,9.284797119140626,-0.13283421099185944,-0.016835704445838928,-0.02359161153435707
1728303253890857200,9.294857177734375,-0.12332645803689957,0.0024740765802562237,-0.025967419147491455
1728303253900917000,9.3049169921875,-0.12575019896030426,-0.013147760182619095,-0.0238235741853714
1728303253910977000,9.31497705078125,-0.12397840619087219,-0.01937716081738472,-0.021372400224208832
1728303253921037300,9.325037353515626,-0.11924942582845688,0.010820689611136913,-0.024234499782323837
1728303253931097000,9.33509716796875,-0.11571594327688217,0.01672944612801075,-0.029760025441646576
1728303253941157000,9.3451572265625,-0.11869735270738602,-0.0006018743733875453,-0.031217040494084358
1728303253951217200,9.355217041015624,-0.11693620681762695,-0.004977447912096977,-0.032578982412815094
1728303253961277200,9.365277099609376,-0.1123180165886879,0.02472878247499466,-0.03737879544496536
1728303253971337000,9.3753369140625,-0.10828492790460587,0.03187191113829613,-0.041185520589351654
1728303253981397200,9.385397216796875,-0.10967297106981277,-0.004098604898899794,-0.0334588922560215
1728303253991457300,9.395457275390624,-0.10744736343622208,-0.009502691216766834,-0.03641180321574211
1728303254001517000,9.40551708984375,-0.10690434277057648,0.026693662628531456,-0.048405084758996964
1728303254011577000,9.4155771484375,-0.10425103455781937,0.00920361839234829,-0.03913115710020065
1728303254021637000,9.42563720703125,-0.10228802263736725,-0.016292687505483627,-0.04098578169941902
1728303254031697200,9.435697265625,-0.09526446461677551,-0.004892759490758181,-0.042987413704395294
1728303254041757200,9.445757080078126,-0.09325431287288666,0.001916144392453134,-0.04769907891750336
1728303254051817200,9.455817138671875,-0.09983498603105545,-0.014540326781570911,-0.042998865246772766
1728303254061877000,9.465876953125,-0.09239038079977036,-0.00509755639359355,-0.03696520999073982
1728303254071937000,9.47593701171875,-0.09069714695215225,0.020711669698357582,-0.038660045713186264
1728303254081997000,9.4859970703125,-0.08669894188642502,-0.005051750224083662,-0.03687146678566933
1728303254092057300,9.496057373046876,-0.08728484064340591,-0.010608435608446598,-0.030048979446291924
1728303254102117000,9.5061171875,-0.08016860485076904,0.0041284323669970036,-0.031807731837034225
1728303254112177200,9.51617724609375,-0.08094864338636398,-0.007934089750051498,-0.024628646671772003
1728303254122237200,9.5262373046875,-0.07983517646789551,-0.02389494702219963,-0.020857078954577446
1728303254132297000,9.536296875,-0.07178764045238495,-0.012291553430259228,-0.019945478066802025
1728303254142357000,9.54635693359375,-0.07700210809707642,-0.011230017989873886,-0.020299412310123444
1728303254152417300,9.556417236328125,-0.06990957260131836,-0.021256286650896072,-0.011010306887328625
1728303254162477000,9.56647705078125,-0.06764721870422363,-0.0256867203861475,-0.012733904644846916
1728303254172537000,9.576537109375,-0.0750015377998352,-0.028560271486639977,-0.004543086513876915
1728303254182597000,9.58659716796875,-0.06596516817808151,-0.0324958898127079,-0.007898136973381042
1728303254192657200,9.5966572265625,-0.06958626955747604,-0.036609943956136703,-0.0033627734519541264
1728303254202717200,9.60671728515625,-0.06501921266317368,-0.02268640324473381,0.002801911672577262
1728303254212777200,9.616777099609376,-0.05186665803194046,0.004625378176569939,-0.018442390486598015
1728303254222837200,9.626837158203125,-0.0642721951007843,-0.032036494463682175,0.007390271872282028
1728303254232897000,9.63689697265625,-0.05874347314238548,-0.03599341958761215,0.0003352919884491712
1728303254242957000,9.64695703125,-0.05235401913523674,-0.015177088789641857,-0.0011052117915824056
1728303254253017000,9.65701708984375,-0.0583685003221035,-0.04399542137980461,0.005162005312740803
1728303254263077000,9.6670771484375,-0.05549841374158859,-0.02786092646420002,-0.004175037611275911
1728303254273137200,9.67713720703125,-0.0517907589673996,-0.039629168808460236,0.002377403900027275
1728303254283197200,9.687197265625,-0.04956355690956116,-0.03614575415849686,-0.003531085327267647
1728303254293257200,9.69725732421875,-0.05215268209576607,-0.02315831556916237,-0.007122091483324766
1728303254303317000,9.70731689453125,-0.057966362684965134,-0.04104144126176834,-0.0047058057971298695
1728303254313377000,9.717376953125,-0.052869074046611786,-0.021193968132138252,-0.008884571492671967
1728303254323437300,9.727437255859375,-0.05203310772776604,-0.009247826412320137,-0.003388073528185487
1728303254333497000,9.7374970703125,-0.051837898790836334,-0.02112738974392414,-0.009280317462980747
1728303254343557000,9.74755712890625,-0.05379771813750267,-0.009282181970775127,-0.011716577224433422
1728303254353617200,9.7576171875,-0.05053161829710007,-0.01745888590812683,-0.0070549799129366875
1728303254363677000,9.767677001953125,-0.052854426205158234,0.009862750768661499,-0.011114169843494892
1728303254373737200,9.7777373046875,-0.05913788825273514,-0.0067660268396139145,-0.00621155695989728
1728303254383797200,9.78779736328125,-0.0567474365234375,-0.004416320007294416,-0.008621451444923878
1728303254393857300,9.797857177734375,-0.05253244936466217,0.002079928759485483,-0.009587646462023258
1728303254403917000,9.8079169921875,-0.051308728754520416,0.009920541197061539,-0.010155698284506798
1728303254413977000,9.81797705078125,-0.05276947095990181,0.014847389422357082,-0.008762332610785961
1728303254424037000,9.828037109375,-0.059178635478019714,-0.0003070624661631882,-0.0014532869681715965
1728303254434097200,9.83809716796875,-0.05650215968489647,0.021522602066397667,-0.015470569021999836
1728303254444157200,9.8481572265625,-0.05446723476052284,0.024583639577031136,-0.0079748360440135
1728303254454217200,9.85821728515625,-0.04682103544473648,0.01679202914237976,-0.004211789462715387
1728303254464277000,9.868277099609376,-0.04830361530184746,0.015538745559751987,-0.006453638430684805
1728303254474340600,9.878340576171874,-0.04821653291583061,0.013050287961959839,-0.003448793664574623
1728303254484400600,9.888400634765626,-0.05091511085629463,0.01763678342103958,-0.0031108383554965258
1728303254494461000,9.8984609375,-0.0513787679374218,0.0035095135681331158,-0.0003246393462177366
1728303254504520700,9.908520751953125,-0.0448489636182785,0.02684706076979637,-0.004568652715533972
1728303254514580700,9.918580810546874,-0.04801519587635994,0.0059753344394266605,-0.0044440170750021935
1728303254524640800,9.928640869140626,-0.05004958435893059,0.01236265990883112,0.0015518239233642817
1728303254534700800,9.93870068359375,-0.04839043691754341,0.011818310245871544,0.002383262850344181
1728303254544760800,9.9487607421875,-0.04705539345741272,0.016392821446061134,-0.0018703379901126027
1728303254554820900,9.95882080078125,-0.04994279146194458,0.0031467911321669817,-0.020499149337410927
1728303254564881000,9.968880859375,-0.05314790830016136,-0.006493319291621447,0.01648523285984993
1728303254574940700,9.978940673828125,-0.044807419180870056,0.014719291590154171,0.005052815657109022
1728303254585000700,9.989000732421875,-0.04843704029917717,0.01380902249366045,0.0019659455865621567
1728303254595060700,9.999060791015625,-0.0493403859436512,0.0221529733389616,-0.0022365227341651917
1728303254605120800,10.009120849609374,-0.05136838182806969,0.00947978813201189,0.004048004746437073
1728303254615180800,10.019180908203126,-0.04554884135723114,0.019331352785229683,-0.0013265205780044198
1728303254625240800,10.02924072265625,-0.04837552085518837,0.000568318588193506,0.0013294500531628728
1728303254635300600,10.039300537109375,-0.05144108831882477,-0.008050469681620598,-0.002380067016929388
1728303254645360600,10.049360595703124,-0.055210523307323456,-0.012287825345993042,0.0013076120521873236
1728303254655420700,10.059420654296876,-0.04723116010427475,-0.0014090784825384617,-0.0038344194181263447
1728303254665481000,10.06948095703125,-0.04806046932935715,-0.025075525045394897,-0.002414954360574484
1728303254675540700,10.079540771484375,-0.05293884873390198,-0.01793772168457508,-0.004310592543333769
1728303254685600800,10.089600830078124,-0.04771292582154274,-0.007121559232473373,-0.007089600898325443
1728303254695660800,10.099660888671876,-0.047332629561424255,-0.01702558808028698,0.0006229133578017354
1728303254705720600,10.109720458984375,-0.04995903745293617,-0.021988922730088234,-0.0015534218400716782
1728303254715780600,10.119780517578125,-0.05005570873618126,-0.02936055138707161,-0.0012926984345540404
1728303254725841000,10.1298408203125,-0.04832891747355461,-0.01763145811855793,-0.007842742837965488
1728303254735900700,10.139900634765626,-0.046242862939834595,-0.034512702375650406,-0.00586721021682024
1728303254745960700,10.149960693359375,-0.04345612972974777,-0.027657726779580116,-0.005000617355108261
1728303254756020700,10.160020751953125,-0.04519863799214363,-0.03573456034064293,-0.003665574826300144
1728303254766080800,10.170080810546875,-0.04906395077705383,-0.041186317801475525,-0.0026013758033514023
1728303254776140800,10.180140869140626,-0.04797125235199928,-0.041858501732349396,0.0012974920682609081
1728303254786200800,10.190200927734375,-0.048289500176906586,-0.04014209285378456,0.0026405241806060076
1728303254796260900,10.2002607421875,-0.04154131934046745,-0.02767130918800831,-0.0025398568250238895
1728303254806320600,10.210320556640625,-0.039384156465530396,-0.042758915573358536,0.0049012815579771996
1728303254816380700,10.220380615234374,-0.04688228666782379,-0.039809998124837875,0.010692325420677662
1728303254826440700,10.230440673828125,-0.042146388441324234,-0.032349418848752975,0.009148490615189075
1728303254836500700,10.240500732421875,-0.04393177106976509,-0.02791685238480568,0.009792443364858627
1728303254846560800,10.250560791015625,-0.04409528896212578,-0.04397731274366379,0.013095295988023281
1728303254856620800,10.260620849609374,-0.042267560958862305,-0.020858943462371826,0.005900765769183636
1728303254866680800,10.270680908203126,-0.03858281299471855,-0.0274494681507349,0.009183644317090511
1728303254876740600,10.28074072265625,-0.05083148926496506,-0.025891784578561783,0.016463661566376686
1728303254886800600,10.290800537109375,-0.04264945909380913,-0.022060029208660126,0.006411826703697443
1728303254896861000,10.30086083984375,-0.040170587599277496,-0.008775382302701473,0.011349060572683811
1728303254906920700,10.310920654296876,-0.04228833317756653,-0.01486150361597538,0.011786884628236294
1728303254916980700,10.320980712890625,-0.049305763095617294,-0.0029997846577316523,0.011258780024945736
1728303254927040800,10.331040771484375,-0.04067392647266388,-0.0017976337112486362,0.0075572519563138485
1728303254937100500,10.3411005859375,-0.04604365676641464,0.0014799186028540134,0.008529306389391422
1728303254947160800,10.351160888671876,-0.04580370709300041,0.0027110979426652193,0.005510879214853048
1728303254957220900,10.361220947265625,-0.04204731807112694,0.018735604360699654,0.0031968585681170225
1728303254967281000,10.371281005859375,-0.0475749745965004,-0.0017749968683347106,0.006961769424378872
1728303254977340700,10.381340576171874,-0.04963120073080063,0.018999258056282997,-0.001546763931401074
1728303254987400700,10.391400634765626,-0.04521115496754646,0.01677924580872059,-0.005064533557742834
1728303254997460700,10.401460693359375,-0.04164331778883934,0.01404604408890009,0.0035950010642409325
1728303255007520800,10.411520751953125,-0.04272855445742607,0.015180816873908043,-0.004099670331925154
1728303255017580800,10.421580810546875,-0.04261670261621475,0.019870111718773842,-0.008713063783943653
1728303255027640800,10.431640869140624,-0.04476001486182213,0.019529493525624275,-0.003005377249792218
1728303255037700600,10.44170068359375,-0.042561840265989304,0.022128205746412277,-0.007735950406640768
1728303255047760600,10.4517607421875,-0.04722237214446068,0.021830730140209198,-0.0030075078830122948
1728303255057820700,10.461820556640625,-0.04084490239620209,0.022101040929555893,-0.013687849044799805
1728303255067881000,10.471880859375,-0.0453038327395916,0.010607103817164898,-0.002502572489902377
1728303255077940700,10.481940673828126,-0.041303496807813644,0.027063574641942978,-0.00703820213675499
1728303255088000800,10.492000732421875,-0.0443006195127964,0.02040008082985878,0.001743038883432746
1728303255098060800,10.502060791015625,-0.04356984794139862,0.011589543893933296,-0.00023329291434492916
1728303255108120600,10.51212060546875,-0.041189249604940414,0.026853185147047043,-0.0008511462947353721
1728303255118180900,10.522180908203126,-0.03945579752326012,-0.001537709147669375,0.005314870737493038
1728303255128241000,10.532240966796875,-0.043359190225601196,0.016562998294830322,0.002656503114849329
1728303255138300700,10.54230078125,-0.03714017942547798,0.010248642414808273,0.0019534286111593246
1728303255148360700,10.552360595703124,-0.034987278282642365,0.009697634726762772,0.0010215885704383254
1728303255158420700,10.562420654296876,-0.034569960087537766,-0.00666269613429904,0.00782703049480915
1728303255168480800,10.572480712890625,-0.03002314642071724,0.0027515781112015247,-0.000865793670527637
1728303255178540800,10.582540771484375,-0.03967257961630821,-0.008211856707930565,0.007840080186724663
1728303255188600800,10.592600830078124,-0.03392201289534569,0.00216594897210598,-0.0004990763845853508
1728303255198660900,10.602660888671876,-0.026436934247612953,0.010746654123067856,-0.0059907808899879456
1728303255208720600,10.612720703125,-0.0327286534011364,-0.007529821712523699,0.0016932378057390451
1728303255218780700,10.62278076171875,-0.02924630232155323,0.0035063179675489664,-0.0020594224333763123
1728303255228840700,10.6328408203125,-0.028193021193146706,-0.00016218650853261352,-0.01338797714561224
1728303255238900700,10.642900634765626,-0.03251346945762634,-0.018212825059890747,-0.0065713501535356045
1728303255248960800,10.652960693359375,-0.03235580772161484,-0.00812237523496151,-0.004853610880672932
1728303255259020800,10.663020751953125,-0.023927437141537666,0.003968908917158842,-0.018521219491958618
1728303255269080600,10.67308056640625,-0.0339244119822979,-0.0195515975356102,-0.00603419030085206
1728303255279140600,10.683140625,-0.030193056911230087,-0.010763165540993214,-0.017004549503326416
1728303255289201000,10.693200927734376,-0.030948860570788383,-0.004539624322205782,-0.015598400495946407
1728303255299261000,10.703260986328125,-0.029454028233885765,-0.01607324182987213,-0.013849236071109772
1728303255309320700,10.71332080078125,-0.036012597382068634,-0.014207698404788971,-0.01071176677942276
1728303255319380700,10.723380615234374,-0.031858332455158234,-0.012601013295352459,-0.012871324084699154
1728303255329440800,10.733440673828126,-0.0327472947537899,-0.014359498396515846,-0.015121428295969963
1728303255339500500,10.74350048828125,-0.03859160095453262,-0.023726901039481163,-0.0054735951125621796
1728303255349560800,10.753560791015625,-0.03062102571129799,-0.001967543503269553,-0.011884888634085655
1728303255359620900,10.763620849609374,-0.03628131002187729,-0.029856698587536812,0.002916161436587572
1728303255369680600,10.7736806640625,-0.034390196204185486,-0.007653126027435064,-0.009984190575778484
1728303255379740700,10.78374072265625,-0.030354976654052734,-0.00669278996065259,-0.0010330402292311192
1728303255389800700,10.79380078125,-0.0347001887857914,-0.03845018520951271,0.0012836436508223414
1728303255399860700,10.80386083984375,-0.030830616131424904,-0.0033372072502970695,-0.011473963037133217
1728303255409920800,10.813920654296876,-0.02954590693116188,-0.02706757001578808,0.00013688647595699877
1728303255419980800,10.823980712890625,-0.032221585512161255,-0.02123737707734108,0.001243962557055056
1728303255430040800,10.834040771484375,-0.03169507905840874,-0.006207828409969807,-0.0021052288357168436
1728303255440100600,10.8441005859375,-0.030977090820670128,-0.02274179831147194,-0.0015893745003268123
1728303255450160600,10.85416064453125,-0.0315731056034565,-0.00008335694292327389,-0.003317766124382615
1728303255460221000,10.864220947265625,-0.029993318021297455,-0.014258830808103085,0.00028522455249913037
1728303255470280700,10.87428076171875,-0.032702818512916565,-0.006244047544896603,-0.005382781382650137
1728303255480336400,10.88433642578125,-0.031808797270059586,-0.023845944553613663,-0.000222373942960985
1728303255490396200,10.894396240234375,-0.028116589412093163,-0.001689509372226894,-0.003314836649224162
1728303255500456400,10.90445654296875,-0.03244662284851074,-0.006413957104086876,0.007494934368878603
1728303255510516500,10.9145166015625,-0.03636200353503227,-0.013672668486833572,0.004166249185800552
1728303255520576500,10.924576416015626,-0.03333532065153122,-0.01104625966399908,0.00794234499335289
1728303255530636300,10.93463623046875,-0.029519809409976006,0.006215285509824753,0.00290391081944108
1728303255540696300,10.9446962890625,-0.03548422455787659,-0.028626585379242897,0.011899003759026527
1728303255550756400,10.95475634765625,-0.0330977663397789,-0.0008189220097847283,0.009512278251349926
1728303255560816400,10.96481640625,-0.031085748225450516,-0.018519621342420578,0.012061456218361855
1728303255570876400,10.97487646484375,-0.03434652090072632,-0.013852432370185852,0.018516959622502327
1728303255580936400,10.9849365234375,-0.02485901117324829,0.0043862261809408665,0.010207363404333591
1728303255590996200,10.994996337890624,-0.030721960589289665,-0.009593239054083824,0.025113875046372414
1728303255601056300,11.00505615234375,-0.030226612463593483,-0.0026346652302891016,0.014040984213352203
1728303255611116300,11.0151162109375,-0.03259549289941788,0.0014716627774760127,0.015001852996647358
1728303255621176600,11.025176513671875,-0.02719726599752903,-0.012315788306295872,0.01907702162861824
1728303255631236400,11.035236328125,-0.02787131257355213,-0.006021939683705568,0.021028585731983185
1728303255641296400,11.04529638671875,-0.029686789959669113,-0.0036075180396437645,0.01793505810201168
1728303255651356400,11.0553564453125,-0.03014937974512577,-0.0014591459184885025,0.020871726796030998
1728303255661416200,11.065416259765625,-0.03237365186214447,-0.0006708502769470215,0.016695888713002205
1728303255671476500,11.0754765625,-0.030478546395897865,-0.008562595583498478,0.016593091189861298
1728303255681536500,11.08553662109375,-0.02907000109553337,-0.000264718197286129,0.013649232685565948
1728303255691596300,11.09559619140625,-0.027363713830709457,0.0018628811230883002,0.02015134133398533
1728303255701655300,11.1056552734375,-0.030493194237351418,0.012718725018203259,0.006534065585583448
1728303255711715600,11.115715576171874,-0.028415130451321602,0.019283415749669075,0.012219647876918316
1728303255721775400,11.125775390625,-0.030189860612154007,0.009649431332945824,0.015807192772626877
1728303255731835400,11.13583544921875,-0.030225014314055443,0.02273806929588318,0.01188116054981947
1728303255741895400,11.1458955078125,-0.027364779263734818,0.022700518369674683,0.004917260725051165
1728303255751955200,11.155955078125,-0.03392867371439934,0.021320201456546783,0.007480286993086338
1728303255762015200,11.16601513671875,-0.031386151909828186,0.012853214517235756,0.009189236909151077
1728303255772075500,11.176075439453125,-0.029212480410933495,0.014759771525859833,-0.0015046859625726938
1728303255782135600,11.186135498046875,-0.036799561232328415,0.004375840071588755,0.00487225316464901
1728303255792195300,11.1961953125,-0.03272385895252228,0.006100236903876066,-0.0017875137273222208
1728303255802255400,11.20625537109375,-0.03352786600589752,0.002055427758023143,-0.002086320426315069
1728303255812315400,11.2163154296875,-0.034396324306726456,-0.0046996804885566235,-0.007095726206898689
1728303255822375400,11.22637548828125,-0.032577116042375565,0.013371998444199562,-0.015234879218041897
1728303255832435500,11.236435546875,-0.026755714789032936,0.009958358481526375,-0.013232181780040264
1728303255842495500,11.24649560546875,-0.029893450438976288,0.005118329077959061,-0.018278339877724648
1728303255852555300,11.25655517578125,-0.034028805792331696,-0.0013078784104436636,-0.010872887447476387
1728303255862615300,11.266615234375,-0.02900635078549385,0.004340952727943659,-0.014370683580636978
1728303255872675300,11.27667529296875,-0.02954244613647461,0.011239871382713318,-0.012371715158224106
1728303255882735600,11.286735595703124,-0.03672712296247482,-0.023140739649534225,-0.012869992293417454
1728303255892795400,11.29679541015625,-0.03298351541161537,0.004282629117369652,-0.01206838060170412
1728303255902855400,11.30685546875,-0.026937874034047127,-0.003209908027201891,-0.011782623827457428
1728303255912915500,11.31691552734375,-0.03172517195343971,-0.006072273477911949,-0.009827597066760063
1728303255922975200,11.326975341796874,-0.033434923738241196,-0.02213779278099537,-0.002041046740487218
1728303255933035300,11.33703515625,-0.032217323780059814,-0.018563298508524895,0.0003022687742486596
1728303255943095600,11.347095458984375,-0.02888304740190506,-0.01065157912671566,0.006744721904397011
1728303255953155300,11.3571552734375,-0.03235367685556412,-0.019060509279370308,0.007539409212768078
1728303255963215400,11.36721533203125,-0.026585271582007408,-0.01016821525990963,0.018763568252325058
1728303255973275400,11.377275390625,-0.03502429649233818,-0.03857109323143959,0.026456907391548157
1728303255983335400,11.38733544921875,-0.033123064786195755,0.01110112015157938,0.018369153141975403
1728303255993395500,11.3973955078125,-0.03224422410130501,-0.028685174882411957,0.027756264433264732
1728303256003455500,11.40745556640625,-0.03015737049281597,-0.013508351519703865,0.031374167650938034
1728303256013515500,11.417515625,-0.029379194602370262,-0.05058381333947182,0.030103040859103203
1728303256023575300,11.4275751953125,-0.031153658404946327,-0.013145629316568375,0.035057853907346725
1728303256033635300,11.43763525390625,-0.02425926737487316,-0.029628464952111244,0.027337614446878433
1728303256043695400,11.4476953125,-0.03433826565742493,-0.02135668694972992,0.036556147038936615
1728303256053755400,11.45775537109375,-0.03176511824131012,-0.034628551453351974,0.02520948275923729
1728303256063815400,11.4678154296875,-0.024578580632805824,-0.01582237333059311,0.03007694147527218
1728303256073875500,11.47787548828125,-0.026489930227398872,-0.04109790176153183,0.02828996069729328
1728303256083935200,11.487935302734375,-0.035419777035713196,-0.008177502080798149,0.022822758182883263
1728303256093995300,11.497995361328124,-0.025731995701789856,-0.02702416107058525,0.018512964248657227
1728303256104055300,11.50805517578125,-0.02923671528697014,-0.00006578007742064074,0.012712599709630013
1728303256114115600,11.518115478515625,-0.029254291206598282,-0.01913907378911972,0.01458693202584982
1728303256124175400,11.52817529296875,-0.028326978906989098,-0.004899417515844107,0.0034911378752440214
1728303256134235400,11.5382353515625,-0.024044882506132126,-0.00993279181420803,0.0006942860782146454
1728303256144295400,11.54829541015625,-0.03038613498210907,-0.019470637664198875,-0.008199607022106647
1728303256154355200,11.558355224609375,-0.030297985300421715,-0.008266451768577099,-0.000027164242055732757
1728303256164415200,11.568415283203125,-0.025900306180119514,-0.015468970872461796,-0.007095726206898689
1728303256174475500,11.5784755859375,-0.02762390486896038,0.0017014936311170459,-0.006736732088029385
1728303256184535300,11.588535400390626,-0.033434655517339706,-0.02797730639576912,-0.009731722995638847
1728303256194595300,11.59859521484375,-0.03248230740427971,0.012111790478229523,-0.006868292577564716
1728303256204655400,11.6086552734375,-0.025561552494764328,-0.017949705943465233,-0.008184959180653095
1728303256214715400,11.61871533203125,-0.034321755170822144,0.004920190200209618,-0.006887467112392187
1728303256224775400,11.628775390625,-0.029413815587759018,-0.027210049331188202,-0.006719155237078667
1728303256234835500,11.63883544921875,-0.029328860342502594,0.01341887004673481,-0.0007294398383237422
1728303256244895500,11.6488955078125,-0.03021116554737091,-0.016518788412213326,0.0032626385800540447
1728303256254955300,11.658955322265625,-0.0353822261095047,-0.0025683525018393993,0.0017915084026753902
1728303256265015300,11.669015380859374,-0.028979720547795296,-0.02539111115038395,0.002287122653797269
1728303256275075300,11.679075439453126,-0.03063167817890644,0.020982246845960617,0.008917861618101597
1728303256285135400,11.68913525390625,-0.03241866081953049,-0.01612144522368908,0.018606973811984062
1728303256295195400,11.6991953125,-0.037944186478853226,0.004459463059902191,0.020916201174259186
1728303256305255400,11.70925537109375,-0.030845263972878456,-0.03394757956266403,0.0203313697129488
1728303256315315500,11.7193154296875,-0.030668430030345917,0.00458622956648469,0.013728595338761806
1728303256325375200,11.729375244140625,-0.02959943749010563,-0.029444441199302673,0.02279745787382126
1728303256335435300,11.739435302734375,-0.024357004091143608,0.010165019892156124,0.015186409465968609
1728303256345495600,11.74949560546875,-0.024058731272816658,-0.01932576112449169,0.009826265275478363
1728303256355555300,11.759555419921876,-0.03243943303823471,0.008384163491427898,0.01158608216792345
1728303256365615400,11.769615478515625,-0.023858727887272835,-0.018682342022657394,0.014732340350747108
1728303256375675400,11.77967529296875,-0.025292040780186653,0.00808961782604456,0.006281598005443811
1728303256385735200,11.789735107421874,-0.02808995731174946,-0.014148576185107231,0.01398452464491129
1728303256395795500,11.79979541015625,-0.02496873214840889,-0.00043649208964779973,-0.0019502328941598535
1728303256405855500,11.80985546875,-0.03003619611263275,-0.011255051009356976,-0.0021694109309464693
1728303256415915500,11.81991552734375,-0.027531493455171585,0.0054331147111952305,-0.013748303055763245
1728303256425975300,11.829975341796874,-0.026553846895694733,-0.01344550121575594,-0.005275455769151449
1728303256436035300,11.840035400390626,-0.02690831385552883,0.0011257182341068983,-0.017436247318983078
1728303256446095400,11.850095458984375,-0.02659725584089756,-0.006665891967713833,-0.014433533884584904
1728303256456155400,11.8601552734375,-0.026574619114398956,0.00592420157045126,-0.016918262466788292
1728303256466215400,11.87021533203125,-0.02321743778884411,-0.0003102582704741508,-0.015063637867569923
1728303256476275500,11.880275390625,-0.026097645983099937,-0.0014330470003187656,-0.02600124105811119
1728303256486336000,11.8903359375,-0.02894137054681778,0.004164917394518852,-0.021204620599746704
1728303256496396000,11.90039599609375,-0.019511915743350983,0.010037187486886978,-0.018877550959587097
1728303256506455800,11.910455810546875,-0.0275056604295969,-0.02340039797127247,-0.020953219383955002
1728303256516516000,11.92051611328125,-0.0265961904078722,0.004738296382129192,-0.022539930418133736
