lat,lon,std_acc_x,median_acc_x,std_acc_y,median_acc_y,std_acc_z,median_acc_z,std_gyr_x,median_gyr_x,std_gyr_y,median_gyr_y,std_gyr_z,median_gyr_z
46.84331738371303,16.83064045329436,0.01611617422001715,0.04011691513679723,0.07887644596316504,0.12214850055246884,0.002006798178178351,0.019971981177202672,0.024287790107187793,0.025757564981876768,0.013684296108282637,0.013559385354226683,0.00026815433661086347,0.0009923656157355804
46.84327759089264,16.830645988505008,0.01611617422001715,0.04011691513679723,0.07887644596316504,0.12214850055246884,0.002006798178178351,0.019971981177202672,0.024287790107187793,0.025757564981876768,0.013684296108282637,0.013559385354226683,0.00026815433661086347,0.0009923656157355804
46.843321645252196,16.830331161735476,0.01611617422001715,0.04011691513679723,0.07887644596316504,0.12214850055246884,0.002006798178178351,0.019971981177202672,0.024287790107187793,0.025757564981876768,0.013684296108282637,0.013559385354226683,0.00026815433661086347,0.0009923656157355804
46.84328849479321,16.83026952635458,0.01611617422001715,0.04011691513679723,0.07887644596316504,0.12214850055246884,0.002006798178178351,0.019971981177202672,0.024287790107187793,0.025757564981876768,0.013684296108282637,0.013559385354226683,0.00026815433661086347,0.0009923656157355804
46.8432037294086,16.830225429679945,0.01611617422001715,0.04011691513679723,0.07887644596316504,0.12214850055246884,0.002006798178178351,0.019971981177202672,0.024287790107187793,0.025757564981876768,0.013684296108282637,0.013559385354226683,0.00026815433661086347,0.0009923656157355804
46.84313990345837,16.830154225716935,0.016229970593547156,0.05114414173490496,0.07795729677870325,0.11493210095538818,0.05269026724792414,0.08438070453638226,0.13772176637859473,0.1552334401409499,0.007260947020559612,0.013815184625799986,0.032670825869965454,0.0008077737892782076
46.84305215915784,16.83002330038464,0.016229970593547156,0.05114414173490496,0.07795729677870325,0.11493210095538818,0.05269026724792414,0.08438070453638226,0.13772176637859473,0.1552334401409499,0.007260947020559612,0.013815184625799986,0.032670825869965454,0.0008077737892782076
46.84297352351659,16.829869877978137,0.016229970593547156,0.05114414173490496,0.07795729677870325,0.11493210095538818,0.05269026724792414,0.08438070453638226,0.13772176637859473,0.1552334401409499,0.007260947020559612,0.013815184625799986,0.032670825869965454,0.0008077737892782076
46.84293441497723,16.829800142579096,0.016229970593547156,0.05114414173490496,0.07795729677870325,0.11493210095538818,0.05269026724792414,0.08438070453638226,0.13772176637859473,0.1552334401409499,0.007260947020559612,0.013815184625799986,0.032670825869965454,0.0008077737892782076
46.84289806080582,16.829722376131873,0.016229970593547156,0.05114414173490496,0.07795729677870325,0.11493210095538818,0.05269026724792414,0.08438070453638226,0.13772176637859473,0.1552334401409499,0.007260947020559612,0.013815184625799986,0.032670825869965454,0.0008077737892782076
46.84286917707863,16.82965330120891,0.01900024759713837,0.017113410840947675,0.04844418664407905,0.013691368168267397,0.00915957864696907,0.03164032320564511,0.01750203631196251,0.022091973546095958,0.005425890412034915,0.007598003683290005,0.0006860986314531001,0.0004063147535680129
46.842833407097686,16.829579133494285,0.01900024759713837,0.017113410840947675,0.04844418664407905,0.013691368168267397,0.00915957864696907,0.03164032320564511,0.01750203631196251,0.022091973546095958,0.005425890412034915,0.007598003683290005,0.0006860986314531001,0.0004063147535680129
46.842799988393196,16.829527238496905,0.01900024759713837,0.017113410840947675,0.04844418664407905,0.013691368168267397,0.00915957864696907,0.03164032320564511,0.01750203631196251,0.022091973546095958,0.005425890412034915,0.007598003683290005,0.0006860986314531001,0.0004063147535680129
46.84272821897985,16.829387731736407,0.01900024759713837,0.017113410840947675,0.04844418664407905,0.013691368168267397,0.00915957864696907,0.03164032320564511,0.01750203631196251,0.022091973546095958,0.005425890412034915,0.007598003683290005,0.0006860986314531001,0.0004063147535680129
46.842649750959,16.829249173347932,0.01900024759713837,0.017113410840947675,0.04844418664407905,0.013691368168267397,0.00915957864696907,0.03164032320564511,0.01750203631196251,0.022091973546095958,0.005425890412034915,0.007598003683290005,0.0006860986314531001,0.0004063147535680129
46.84261277678584,16.82918713997116,0.01900024759713837,0.017113410840947675,0.04844418664407905,0.013691368168267397,0.00915957864696907,0.03164032320564511,0.01750203631196251,0.022091973546095958,0.005425890412034915,0.007598003683290005,0.0006860986314531001,0.0004063147535680129
46.8425700884623,16.82911580961875,0.01900024759713837,0.017113410840947675,0.04844418664407905,0.013691368168267397,0.00915957864696907,0.03164032320564511,0.01750203631196251,0.022091973546095958,0.005425890412034915,0.007598003683290005,0.0006860986314531001,0.0004063147535680129
46.84253781088233,16.829061976068402,0.01900024759713837,0.017113410840947675,0.04844418664407905,0.013691368168267397,0.00915957864696907,0.03164032320564511,0.01750203631196251,0.022091973546095958,0.005425890412034915,0.007598003683290005,0.0006860986314531001,0.0004063147535680129
46.842500610302416,16.828999937392606,0.01900024759713837,0.017113410840947675,0.04844418664407905,0.013691368168267397,0.00915957864696907,0.03164032320564511,0.01750203631196251,0.022091973546095958,0.005425890412034915,0.007598003683290005,0.0006860986314531001,0.0004063147535680129
46.842466576574076,16.828943230303604,0.01900024759713837,0.017113410840947675,0.04844418664407905,0.013691368168267397,0.00915957864696907,0.03164032320564511,0.01750203631196251,0.022091973546095958,0.005425890412034915,0.007598003683290005,0.0006860986314531001,0.0004063147535680129
46.842441840094246,16.828902248531147,0.0738986430654951,0.029123910210001814,0.005581944809567002,0.016015171451862924,0.1167102795228471,0.07675272916401579,0.05337465722331098,0.04003609747942265,0.06429564583226678,0.013506229737224637,0.00046077424933114146,0.00050112272578536
46.84239746124072,16.82882930769492,0.0738986430654951,0.029123910210001814,0.005581944809567002,0.016015171451862924,0.1167102795228471,0.07675272916401579,0.05337465722331098,0.04003609747942265,0.06429564583226678,0.013506229737224637,0.00046077424933114146,0.00050112272578536
46.8423635350799,16.82877416579565,0.0738986430654951,0.029123910210001814,0.005581944809567002,0.016015171451862924,0.1167102795228471,0.07675272916401579,0.05337465722331098,0.04003609747942265,0.06429564583226678,0.013506229737224637,0.00046077424933114146,0.00050112272578536
46.84233277018431,16.82872475350327,0.0738986430654951,0.029123910210001814,0.005581944809567002,0.016015171451862924,0.1167102795228471,0.07675272916401579,0.05337465722331098,0.04003609747942265,0.06429564583226678,0.013506229737224637,0.00046077424933114146,0.00050112272578536
46.842302858278444,16.828677269821803,0.0738986430654951,0.029123910210001814,0.005581944809567002,0.016015171451862924,0.1167102795228471,0.07675272916401579,0.05337465722331098,0.04003609747942265,0.06429564583226678,0.013506229737224637,0.00046077424933114146,0.00050112272578536
46.84226350054189,16.82861542821403,0.042467103713407756,0.04011691513679723,0.01485004613149336,0.03496548914007215,0.13149531534005668,0.12501330841544955,0.037348016221830156,0.10646450759014311,0.04604591682599248,0.034505516162759,0.0015422422071588637,0.0009923656157355804
46.84222644263759,16.82855791542059,0.042467103713407756,0.04011691513679723,0.01485004613149336,0.03496548914007215,0.13149531534005668,0.12501330841544955,0.037348016221830156,0.10646450759014311,0.04604591682599248,0.034505516162759,0.0015422422071588637,0.0009923656157355804
46.84219920186491,16.828516678539476,0.042467103713407756,0.04011691513679723,0.01485004613149336,0.03496548914007215,0.13149531534005668,0.12501330841544955,0.037348016221830156,0.10646450759014311,0.04604591682599248,0.034505516162759,0.0015422422071588637,0.0009923656157355804
46.842171644458126,16.82847592798827,0.042467103713407756,0.04011691513679723,0.01485004613149336,0.03496548914007215,0.13149531534005668,0.12501330841544955,0.037348016221830156,0.10646450759014311,0.04604591682599248,0.034505516162759,0.0015422422071588637,0.0009923656157355804
46.842123980895366,16.82840782248408,0.042467103713407756,0.04011691513679723,0.01485004613149336,0.03496548914007215,0.13149531534005668,0.12501330841544955,0.037348016221830156,0.10646450759014311,0.04604591682599248,0.034505516162759,0.0015422422071588637,0.0009923656157355804
46.8421007621522,16.828375598237756,0.012805990000761002,0.02842565178299087,0.005179913949777578,0.008356359930591667,0.014265910134589086,0.04252851591193762,0.0195275002303066,0.04622026903145557,0.0038907247119588633,0.010901211891788762,0.0008290685539359414,0.0004627426358638477
46.8420691053363,16.828332650320274,0.012805990000761002,0.02842565178299087,0.005179913949777578,0.008356359930591667,0.014265910134589086,0.04252851591193762,0.0195275002303066,0.04622026903145557,0.0038907247119588633,0.010901211891788762,0.0008290685539359414,0.0004627426358638477
46.84204363922624,16.828298765426318,0.012805990000761002,0.02842565178299087,0.005179913949777578,0.008356359930591667,0.014265910134589086,0.04252851591193762,0.0195275002303066,0.04622026903145557,0.0038907247119588633,0.010901211891788762,0.0008290685539359414,0.0004627426358638477
46.84200908067266,16.828253525719994,0.012805990000761002,0.02842565178299087,0.005179913949777578,0.008356359930591667,0.014265910134589086,0.04252851591193762,0.0195275002303066,0.04622026903145557,0.0038907247119588633,0.010901211891788762,0.0008290685539359414,0.0004627426358638477
46.841983970881145,16.828221159839707,0.012805990000761002,0.02842565178299087,0.005179913949777578,0.008356359930591667,0.014265910134589086,0.04252851591193762,0.0195275002303066,0.04622026903145557,0.0038907247119588633,0.010901211891788762,0.0008290685539359414,0.0004627426358638477
46.84194949366321,16.828177951944493,0.012805990000761002,0.02842565178299087,0.005179913949777578,0.008356359930591667,0.014265910134589086,0.04252851591193762,0.0195275002303066,0.04622026903145557,0.0038907247119588633,0.010901211891788762,0.0008290685539359414,0.0004627426358638477
46.84192152454429,16.828144067090143,0.012805990000761002,0.02842565178299087,0.005179913949777578,0.008356359930591667,0.014265910134589086,0.04252851591193762,0.0195275002303066,0.04622026903145557,0.0038907247119588633,0.010901211891788762,0.0008290685539359414,0.0004627426358638477
46.84189208590427,16.82810956395635,0.012805990000761002,0.02842565178299087,0.005179913949777578,0.008356359930591667,0.014265910134589086,0.04252851591193762,0.0195275002303066,0.04622026903145557,0.0038907247119588633,0.010901211891788762,0.0008290685539359414,0.0004627426358638477
46.84184547398182,16.82805816624809,0.012805990000761002,0.02842565178299087,0.005179913949777578,0.008356359930591667,0.014265910134589086,0.04252851591193762,0.0195275002303066,0.04622026903145557,0.0038907247119588633,0.010901211891788762,0.0008290685539359414,0.0004627426358638477
46.84181803722192,16.828030067946706,0.012805990000761002,0.02842565178299087,0.005179913949777578,0.008356359930591667,0.014265910134589086,0.04252851591193762,0.0195275002303066,0.04622026903145557,0.0038907247119588633,0.010901211891788762,0.0008290685539359414,0.0004627426358638477
46.84178856532239,16.828001162532395,0.009563007541032875,0.0246957337497506,0.15880603124513876,0.06450888522764879,0.019066468543040338,0.02973077357559099,0.014582509230643656,0.019743198200969442,0.002430888116751173,0.00641566956596656,0.0012058153565202474,0.0005315199273448755
46.841759311913414,16.82797275548391,0.009563007541032875,0.0246957337497506,0.15880603124513876,0.06450888522764879,0.019066468543040338,0.02973077357559099,0.014582509230643656,0.019743198200969442,0.002430888116751173,0.00641566956596656,0.0012058153565202474,0.0005315199273448755
46.84173869294613,16.82795284215516,0.009563007541032875,0.0246957337497506,0.15880603124513876,0.06450888522764879,0.019066468543040338,0.02973077357559099,0.014582509230643656,0.019743198200969442,0.002430888116751173,0.00641566956596656,0.0012058153565202474,0.0005315199273448755
46.84170264861686,16.827918199464552,0.009563007541032875,0.0246957337497506,0.15880603124513876,0.06450888522764879,0.019066468543040338,0.02973077357559099,0.014582509230643656,0.019743198200969442,0.002430888116751173,0.00641566956596656,0.0012058153565202474,0.0005315199273448755
46.84167504003941,16.82789136267927,0.009563007541032875,0.0246957337497506,0.15880603124513876,0.06450888522764879,0.019066468543040338,0.02973077357559099,0.014582509230643656,0.019743198200969442,0.002430888116751173,0.00641566956596656,0.0012058153565202474,0.0005315199273448755
46.84164320289892,16.827859919085792,0.004956732768855513,0.009292779905139369,0.9611935106074212,0.2207234406070232,0.012059150742115821,0.0145520777256912,0.030051962694931898,0.02611237400431184,0.0027578283441333585,0.002571840530851764,0.00016685870249357628,0.00046471274159903575
46.841617383538484,16.827834190683387,0.004956732768855513,0.009292779905139369,0.9611935106074212,0.2207234406070232,0.012059150742115821,0.0145520777256912,0.030051962694931898,0.02611237400431184,0.0027578283441333585,0.002571840530851764,0.00016685870249357628,0.00046471274159903575
46.8415676820657,16.827794434996925,0.004956732768855513,0.009292779905139369,0.9611935106074212,0.2207234406070232,0.012059150742115821,0.0145520777256912,0.030051962694931898,0.02611237400431184,0.0027578283441333585,0.002571840530851764,0.00016685870249357628,0.00046471274159903575
46.841561552923785,16.82777822458232,0.004956732768855513,0.009292779905139369,0.9611935106074212,0.2207234406070232,0.012059150742115821,0.0145520777256912,0.030051962694931898,0.02611237400431184,0.0027578283441333585,0.002571840530851764,0.00016685870249357628,0.00046471274159903575
46.84160367764828,16.827838329504832,0.004956732768855513,0.009292779905139369,0.9611935106074212,0.2207234406070232,0.012059150742115821,0.0145520777256912,0.030051962694931898,0.02611237400431184,0.0027578283441333585,0.002571840530851764,0.00016685870249357628,0.00046471274159903575
46.84163189615555,16.82786461633267,0.0012609002959556492,0.013576862504525259,0.34694984034219123,0.11106023730317423,0.0023589858813148055,0.013001396395235496,0.012838782337743755,0.029437655978916448,0.0019631115554301025,0.00596199169902698,0.0010579659423154927,0.0002755520142657558
46.841667727624895,16.82789465712275,0.0012609002959556492,0.013576862504525259,0.34694984034219123,0.11106023730317423,0.0023589858813148055,0.013001396395235496,0.012838782337743755,0.029437655978916448,0.0019631115554301025,0.00596199169902698,0.0010579659423154927,0.0002755520142657558
46.84163980920416,16.82782852609277,0.0012609002959556492,0.013576862504525259,0.34694984034219123,0.11106023730317423,0.0023589858813148055,0.013001396395235496,0.012838782337743755,0.029437655978916448,0.0019631115554301025,0.00596199169902698,0.0010579659423154927,0.0002755520142657558
46.84160002419867,16.827787206077346,0.0012609002959556492,0.013576862504525259,0.34694984034219123,0.11106023730317423,0.0023589858813148055,0.013001396395235496,0.012838782337743755,0.029437655978916448,0.0019631115554301025,0.00596199169902698,0.0010579659423154927,0.0002755520142657558
46.84158524260666,16.827773937117836,0.0012609002959556492,0.013576862504525259,0.34694984034219123,0.11106023730317423,0.0023589858813148055,0.013001396395235496,0.012838782337743755,0.029437655978916448,0.0019631115554301025,0.00596199169902698,0.0010579659423154927,0.0002755520142657558
46.84156130502213,16.827752594286586,0.014105698317775308,0.014266317269450714,0.03741951815232855,0.030601532406823204,0.006388985941038249,0.008455696421827329,0.013936049227928186,0.016542658964260184,0.005102162104663657,0.004222116791852101,0.00037630773514856056,0.0009228802901272971
46.84153583182029,16.82773072917732,0.014105698317775308,0.014266317269450714,0.03741951815232855,0.030601532406823204,0.006388985941038249,0.008455696421827329,0.013936049227928186,0.016542658964260184,0.005102162104663657,0.004222116791852101,0.00037630773514856056,0.0009228802901272971
46.84150022575136,16.82770173132178,0.014105698317775308,0.014266317269450714,0.03741951815232855,0.030601532406823204,0.006388985941038249,0.008455696421827329,0.013936049227928186,0.016542658964260184,0.005102162104663657,0.004222116791852101,0.00037630773514856056,0.0009228802901272971
46.841469981814065,16.82767719927998,0.014105698317775308,0.014266317269450714,0.03741951815232855,0.030601532406823204,0.006388985941038249,0.008455696421827329,0.013936049227928186,0.016542658964260184,0.005102162104663657,0.004222116791852101,0.00037630773514856056,0.0009228802901272971
46.84141941336605,16.827632410069025,0.014105698317775308,0.014266317269450714,0.03741951815232855,0.030601532406823204,0.006388985941038249,0.008455696421827329,0.013936049227928186,0.016542658964260184,0.005102162104663657,0.004222116791852101,0.00037630773514856056,0.0009228802901272971
46.84135496247121,16.82757053266347,0.07855416448532311,0.04011691513679723,0.12369718126902675,0.038722901140232725,0.17820499429049363,0.03680438777659534,0.1172023507034563,0.06634421660909996,0.041281273730076444,0.021243545054251963,0.0008852566216307155,0.0009923656157355804
46.84130746101801,16.82752568809237,0.07855416448532311,0.04011691513679723,0.12369718126902675,0.038722901140232725,0.17820499429049363,0.03680438777659534,0.1172023507034563,0.06634421660909996,0.041281273730076444,0.021243545054251963,0.0008852566216307155,0.0009923656157355804
46.84124653582599,16.827467759815367,0.07855416448532311,0.04011691513679723,0.12369718126902675,0.038722901140232725,0.17820499429049363,0.03680438777659534,0.1172023507034563,0.06634421660909996,0.041281273730076444,0.021243545054251963,0.0008852566216307155,0.0009923656157355804
46.84119481363547,16.82741651489187,0.07855416448532311,0.04011691513679723,0.12369718126902675,0.038722901140232725,0.17820499429049363,0.03680438777659534,0.1172023507034563,0.06634421660909996,0.041281273730076444,0.021243545054251963,0.0008852566216307155,0.0009923656157355804
46.84113348727549,16.82734959004798,0.07855416448532311,0.04011691513679723,0.12369718126902675,0.038722901140232725,0.17820499429049363,0.03680438777659534,0.1172023507034563,0.06634421660909996,0.041281273730076444,0.021243545054251963,0.0008852566216307155,0.0009923656157355804
46.84108353807602,16.82729698316494,0.031045879533453394,0.047145113298700005,0.038881547717978346,0.017432515815609007,0.038804034493907555,0.0552292110669174,0.0848325603625408,0.05137582339103374,0.006689724321837508,0.01846946664298061,0.0068764075943255915,0.004351740419137393
46.841034219072746,16.82724961197807,0.031045879533453394,0.047145113298700005,0.038881547717978346,0.017432515815609007,0.038804034493907555,0.0552292110669174,0.0848325603625408,0.05137582339103374,0.006689724321837508,0.01846946664298061,0.0068764075943255915,0.004351740419137393
46.841012704824955,16.827227814715762,0.031045879533453394,0.047145113298700005,0.038881547717978346,0.017432515815609007,0.038804034493907555,0.0552292110669174,0.0848325603625408,0.05137582339103374,0.006689724321837508,0.01846946664298061,0.0068764075943255915,0.004351740419137393
46.840988049445016,16.827202263363887,0.031045879533453394,0.047145113298700005,0.038881547717978346,0.017432515815609007,0.038804034493907555,0.0552292110669174,0.0848325603625408,0.05137582339103374,0.006689724321837508,0.01846946664298061,0.0068764075943255915,0.004351740419137393
46.84095262029567,16.82716525606931,0.031045879533453394,0.047145113298700005,0.038881547717978346,0.017432515815609007,0.038804034493907555,0.0552292110669174,0.0848325603625408,0.05137582339103374,0.006689724321837508,0.01846946664298061,0.0068764075943255915,0.004351740419137393
46.84091555123649,16.82712651148375,0.0693618424907239,0.1262688823102164,0.014323309893026067,0.017387234854490206,0.11120998156019597,0.09935652178119482,0.1319636076343303,0.13461605741977478,0.06959116746141283,0.05619062360322798,0.001843661454779271,0.0035963339831045042
46.84087305905704,16.827083384201256,0.0693618424907239,0.1262688823102164,0.014323309893026067,0.017387234854490206,0.11120998156019597,0.09935652178119482,0.1319636076343303,0.13461605741977478,0.06959116746141283,0.05619062360322798,0.001843661454779271,0.0035963339831045042
46.84085614424717,16.82706725472632,0.0693618424907239,0.1262688823102164,0.014323309893026067,0.017387234854490206,0.11120998156019597,0.09935652178119482,0.1319636076343303,0.13461605741977478,0.06959116746141283,0.05619062360322798,0.001843661454779271,0.0035963339831045042
46.84081812773482,16.827032821731624,0.0693618424907239,0.1262688823102164,0.014323309893026067,0.017387234854490206,0.11120998156019597,0.09935652178119482,0.1319636076343303,0.13461605741977478,0.06959116746141283,0.05619062360322798,0.001843661454779271,0.0035963339831045042
46.84079125173702,16.827008539799785,0.0693618424907239,0.1262688823102164,0.014323309893026067,0.017387234854490206,0.11120998156019597,0.09935652178119482,0.1319636076343303,0.13461605741977478,0.06959116746141283,0.05619062360322798,0.001843661454779271,0.0035963339831045042
46.84075455812013,16.82697471801761,0.022766063058732598,0.03681395706288989,0.0020617411733094195,0.006027036802212893,0.020095091823684057,0.05140903047313387,0.037095608379442056,0.08299619528973592,0.0009690478182941362,0.013045961141289772,0.0019249014665265228,0.0009711523504023648
46.840724641442954,16.82694670817087,0.022766063058732598,0.03681395706288989,0.0020617411733094195,0.006027036802212893,0.020095091823684057,0.05140903047313387,0.037095608379442056,0.08299619528973592,0.0009690478182941362,0.013045961141289772,0.0019249014665265228,0.0009711523504023648
46.84069699853102,16.826921104840736,0.022766063058732598,0.03681395706288989,0.0020617411733094195,0.006027036802212893,0.020095091823684057,0.05140903047313387,0.037095608379442056,0.08299619528973592,0.0009690478182941362,0.013045961141289772,0.0019249014665265228,0.0009711523504023648
46.840669566140875,16.82689599815549,0.022766063058732598,0.03681395706288989,0.0020617411733094195,0.006027036802212893,0.020095091823684057,0.05140903047313387,0.037095608379442056,0.08299619528973592,0.0009690478182941362,0.013045961141289772,0.0019249014665265228,0.0009711523504023648
46.840636195755,16.82686585664764,0.022766063058732598,0.03681395706288989,0.0020617411733094195,0.006027036802212893,0.020095091823684057,0.05140903047313387,0.037095608379442056,0.08299619528973592,0.0009690478182941362,0.013045961141289772,0.0019249014665265228,0.0009711523504023648
46.84059355710091,16.82682814348537,0.043559349125075426,0.10552476755216054,0.007222924005731428,0.012811212911306984,0.05725005329766012,0.14297701134704485,0.010925402547524643,0.033514435741249494,0.007878490236874564,0.025888828904156096,0.000816459891385273,0.001155056584680388
46.84057747368762,16.82681423184424,0.043559349125075426,0.10552476755216054,0.007222924005731428,0.012811212911306984,0.05725005329766012,0.14297701134704485,0.010925402547524643,0.033514435741249494,0.007878490236874564,0.025888828904156096,0.000816459891385273,0.001155056584680388
46.84055338535827,16.82679357818134,0.043559349125075426,0.10552476755216054,0.007222924005731428,0.012811212911306984,0.05725005329766012,0.14297701134704485,0.010925402547524643,0.033514435741249494,0.007878490236874564,0.025888828904156096,0.000816459891385273,0.001155056584680388
46.84052910139224,16.8267729400357,0.043559349125075426,0.10552476755216054,0.007222924005731428,0.012811212911306984,0.05725005329766012,0.14297701134704485,0.010925402547524643,0.033514435741249494,0.007878490236874564,0.025888828904156096,0.000816459891385273,0.001155056584680388
46.84050083926581,16.826748934357806,0.043559349125075426,0.10552476755216054,0.007222924005731428,0.012811212911306984,0.05725005329766012,0.14297701134704485,0.010925402547524643,0.033514435741249494,0.007878490236874564,0.025888828904156096,0.000816459891385273,0.001155056584680388
46.84047728009036,16.826728933097232,0.04928132287752826,0.08328798791526475,0.0009359166796997551,0.012669016018159807,0.06834398263766231,0.14894186867218825,0.029020616519257223,0.13086216052027183,0.01835593543411446,0.036965544746577886,0.002485935292783332,0.0009923656157355804
46.8404352021522,16.82669294928513,0.04928132287752826,0.08328798791526475,0.0009359166796997551,0.012669016018159807,0.06834398263766231,0.14894186867218825,0.029020616519257223,0.13086216052027183,0.01835593543411446,0.036965544746577886,0.002485935292783332,0.0009923656157355804
46.84040374607943,16.826664724239656,0.04928132287752826,0.08328798791526475,0.0009359166796997551,0.012669016018159807,0.06834398263766231,0.14894186867218825,0.029020616519257223,0.13086216052027183,0.01835593543411446,0.036965544746577886,0.002485935292783332,0.0009923656157355804
46.84035179133926,16.826615123179298,0.04928132287752826,0.08328798791526475,0.0009359166796997551,0.012669016018159807,0.06834398263766231,0.14894186867218825,0.029020616519257223,0.13086216052027183,0.01835593543411446,0.036965544746577886,0.002485935292783332,0.0009923656157355804
46.84031436893772,16.826579238795507,0.04928132287752826,0.08328798791526475,0.0009359166796997551,0.012669016018159807,0.06834398263766231,0.14894186867218825,0.029020616519257223,0.13086216052027183,0.01835593543411446,0.036965544746577886,0.002485935292783332,0.0009923656157355804
46.84030799568011,16.826573181842953,0.019932031633700553,0.09761221399367058,0.0023725266978207424,0.01226025434989483,0.025332092027799364,0.08121135866806561,0.04293584268461125,0.09225137724538708,0.008391994982855675,0.02992802761891544,0.00031115174419429393,0.001350779944031015
46.84026875950961,16.82653638624256,0.019932031633700553,0.09761221399367058,0.0023725266978207424,0.01226025434989483,0.025332092027799364,0.08121135866806561,0.04293584268461125,0.09225137724538708,0.008391994982855675,0.02992802761891544,0.00031115174419429393,0.001350779944031015
46.84023242510642,16.82650036499172,0.019932031633700553,0.09761221399367058,0.0023725266978207424,0.01226025434989483,0.025332092027799364,0.08121135866806561,0.04293584268461125,0.09225137724538708,0.008391994982855675,0.02992802761891544,0.00031115174419429393,0.001350779944031015
46.840212976000736,16.82647982049871,0.019932031633700553,0.09761221399367058,0.0023725266978207424,0.01226025434989483,0.025332092027799364,0.08121135866806561,0.04293584268461125,0.09225137724538708,0.008391994982855675,0.02992802761891544,0.00031115174419429393,0.001350779944031015
46.84018354296517,16.82644672099848,0.019932031633700553,0.09761221399367058,0.0023725266978207424,0.01226025434989483,0.025332092027799364,0.08121135866806561,0.04293584268461125,0.09225137724538708,0.008391994982855675,0.02992802761891544,0.00031115174419429393,0.001350779944031015
46.840131397581864,16.826384233620963,0.055424262720650944,0.09226731710565796,0.027656629338298905,0.014170467851712328,0.060043598472736735,0.1106589945538321,0.12692754323775757,0.18317262061245068,0.0304246959082176,0.043364049595490485,0.0022277256899921514,0.0009923656157355804
46.84011499319182,16.826363806364572,0.055424262720650944,0.09226731710565796,0.027656629338298905,0.014170467851712328,0.060043598472736735,0.1106589945538321,0.12692754323775757,0.18317262061245068,0.0304246959082176,0.043364049595490485,0.0022277256899921514,0.0009923656157355804
46.84007760166395,16.826315173875322,0.055424262720650944,0.09226731710565796,0.027656629338298905,0.014170467851712328,0.060043598472736735,0.1106589945538321,0.12692754323775757,0.18317262061245068,0.0304246959082176,0.043364049595490485,0.0022277256899921514,0.0009923656157355804
46.84004237747811,16.82626469213609,0.055424262720650944,0.09226731710565796,0.027656629338298905,0.014170467851712328,0.060043598472736735,0.1106589945538321,0.12692754323775757,0.18317262061245068,0.0304246959082176,0.043364049595490485,0.0022277256899921514,0.0009923656157355804
46.840004404474506,16.82620429496498,0.055424262720650944,0.09226731710565796,0.027656629338298905,0.014170467851712328,0.060043598472736735,0.1106589945538321,0.12692754323775757,0.18317262061245068,0.0304246959082176,0.043364049595490485,0.0022277256899921514,0.0009923656157355804
46.83995576723826,16.8261220328875,0.07945355140826256,0.14785641295388907,0.025593670702189646,0.024483410696626927,0.05710472854649126,0.1962795158983628,0.11950182043379295,0.11026068847840291,0.02545590454399552,0.04961304365754571,0.0015969476881309544,0.0023124645182265383
46.83992610755378,16.826070030409262,0.07945355140826256,0.14785641295388907,0.025593670702189646,0.024483410696626927,0.05710472854649126,0.1962795158983628,0.11950182043379295,0.11026068847840291,0.02545590454399552,0.04961304365754571,0.0015969476881309544,0.0023124645182265383
46.83986530434634,16.825963158703907,0.07945355140826256,0.14785641295388907,0.025593670702189646,0.024483410696626927,0.05710472854649126,0.1962795158983628,0.11950182043379295,0.11026068847840291,0.02545590454399552,0.04961304365754571,0.0015969476881309544,0.0023124645182265383
46.83981634944392,16.825881118368528,0.07945355140826256,0.14785641295388907,0.025593670702189646,0.024483410696626927,0.05710472854649126,0.1962795158983628,0.11950182043379295,0.11026068847840291,0.02545590454399552,0.04961304365754571,0.0015969476881309544,0.0023124645182265383
46.83978638241127,16.82583255930826,0.07945355140826256,0.14785641295388907,0.025593670702189646,0.024483410696626927,0.05710472854649126,0.1962795158983628,0.11950182043379295,0.11026068847840291,0.02545590454399552,0.04961304365754571,0.0015969476881309544,0.0023124645182265383
46.839743852101144,16.825755068592116,0.0515847776087313,0.04909580902391652,0.007196663739267196,0.012241079553787941,0.026886639029222368,0.045041544671159714,0.02305117120338548,0.025838470899989092,0.019841201094060033,0.02161179254946956,0.00401225553531592,0.005907876536134261
46.83970966499606,16.825683216069102,0.0515847776087313,0.04909580902391652,0.007196663739267196,0.012241079553787941,0.026886639029222368,0.045041544671159714,0.02305117120338548,0.025838470899989092,0.019841201094060033,0.02161179254946956,0.00401225553531592,0.005907876536134261
46.83966139834749,16.825576085254678,0.0515847776087313,0.04909580902391652,0.007196663739267196,0.012241079553787941,0.026886639029222368,0.045041544671159714,0.02305117120338548,0.025838470899989092,0.019841201094060033,0.02161179254946956,0.00401225553531592,0.005907876536134261
46.839579760162785,16.82536507494818,0.0515847776087313,0.04909580902391652,0.007196663739267196,0.012241079553787941,0.026886639029222368,0.045041544671159714,0.02305117120338548,0.025838470899989092,0.019841201094060033,0.02161179254946956,0.00401225553531592,0.005907876536134261
46.83953392845042,16.825266889238897,0.0515847776087313,0.04909580902391652,0.007196663739267196,0.012241079553787941,0.026886639029222368,0.045041544671159714,0.02305117120338548,0.025838470899989092,0.019841201094060033,0.02161179254946956,0.00401225553531592,0.005907876536134261
46.83949296549452,16.825190801576095,0.0515847776087313,0.04909580902391652,0.007196663739267196,0.012241079553787941,0.026886639029222368,0.045041544671159714,0.02305117120338548,0.025838470899989092,0.019841201094060033,0.02161179254946956,0.00401225553531592,0.005907876536134261
46.83944650796085,16.825106694851453,0.0515847776087313,0.04909580902391652,0.007196663739267196,0.012241079553787941,0.026886639029222368,0.045041544671159714,0.02305117120338548,0.025838470899989092,0.019841201094060033,0.02161179254946956,0.00401225553531592,0.005907876536134261
46.83941443366891,16.8250523428618,0.0515847776087313,0.04909580902391652,0.007196663739267196,0.012241079553787941,0.026886639029222368,0.045041544671159714,0.02305117120338548,0.025838470899989092,0.019841201094060033,0.02161179254946956,0.00401225553531592,0.005907876536134261
46.839380416326584,16.824998647488822,0.0515847776087313,0.04909580902391652,0.007196663739267196,0.012241079553787941,0.026886639029222368,0.045041544671159714,0.02305117120338548,0.025838470899989092,0.019841201094060033,0.02161179254946956,0.00401225553531592,0.005907876536134261
46.8393350686649,16.82493739066618,0.0515847776087313,0.04909580902391652,0.007196663739267196,0.012241079553787941,0.026886639029222368,0.045041544671159714,0.02305117120338548,0.025838470899989092,0.019841201094060033,0.02161179254946956,0.00401225553531592,0.005907876536134261
46.8393067374882,16.824905804083684,0.06745091494759833,0.1337247468222938,0.00759091859706175,0.008705827018438075,0.07406349538776803,0.08850801376809925,0.021712787776207512,0.06081757230663658,0.023193788682942713,0.025398070588690275,0.0013775871727860227,0.0014525175984956898
46.83927936051698,16.82487875744141,0.06745091494759833,0.1337247468222938,0.00759091859706175,0.008705827018438075,0.07406349538776803,0.08850801376809925,0.021712787776207512,0.06081757230663658,0.023193788682942713,0.025398070588690275,0.0013775871727860227,0.0014525175984956898
46.8392410202035,16.824838508752027,0.06745091494759833,0.1337247468222938,0.00759091859706175,0.008705827018438075,0.07406349538776803,0.08850801376809925,0.021712787776207512,0.06081757230663658,0.023193788682942713,0.025398070588690275,0.0013775871727860227,0.0014525175984956898
46.83919732634716,16.82478682209328,0.06745091494759833,0.1337247468222938,0.00759091859706175,0.008705827018438075,0.07406349538776803,0.08850801376809925,0.021712787776207512,0.06081757230663658,0.023193788682942713,0.025398070588690275,0.0013775871727860227,0.0014525175984956898
46.83917085129643,16.824756224748846,0.06745091494759833,0.1337247468222938,0.00759091859706175,0.008705827018438075,0.07406349538776803,0.08850801376809925,0.021712787776207512,0.06081757230663658,0.023193788682942713,0.025398070588690275,0.0013775871727860227,0.0014525175984956898
46.83914884091548,16.824732852096513,0.03356684559071273,0.029452998105608197,0.005677007124840919,0.005355031080414224,0.031987810124693365,0.029769523991685438,0.029219930286033795,0.02269987862290554,0.011149404327150699,0.006918758647201928,0.0016753692155883383,0.0007428429338893814
46.83911306283612,16.82469877852297,0.03356684559071273,0.029452998105608197,0.005677007124840919,0.005355031080414224,0.031987810124693365,0.029769523991685438,0.029219930286033795,0.02269987862290554,0.011149404327150699,0.006918758647201928,0.0016753692155883383,0.0007428429338893814
46.83908621085451,16.824675418997074,0.03356684559071273,0.029452998105608197,0.005677007124840919,0.005355031080414224,0.031987810124693365,0.029769523991685438,0.029219930286033795,0.02269987862290554,0.011149404327150699,0.006918758647201928,0.0016753692155883383,0.0007428429338893814
46.839062501816805,16.824656005326226,0.03356684559071273,0.029452998105608197,0.005677007124840919,0.005355031080414224,0.031987810124693365,0.029769523991685438,0.029219930286033795,0.02269987862290554,0.011149404327150699,0.006918758647201928,0.0016753692155883383,0.0007428429338893814
46.83903409209578,16.82463414122217,0.03356684559071273,0.029452998105608197,0.005677007124840919,0.005355031080414224,0.031987810124693365,0.029769523991685438,0.029219930286033795,0.02269987862290554,0.011149404327150699,0.006918758647201928,0.0016753692155883383,0.0007428429338893814
46.83900684574085,16.82461450863739,0.03356684559071273,0.029452998105608197,0.005677007124840919,0.005355031080414224,0.031987810124693365,0.029769523991685438,0.029219930286033795,0.02269987862290554,0.011149404327150699,0.006918758647201928,0.0016753692155883383,0.0007428429338893814
46.83898372896669,16.82459853969708,0.03356684559071273,0.029452998105608197,0.005677007124840919,0.005355031080414224,0.031987810124693365,0.029769523991685438,0.029219930286033795,0.02269987862290554,0.011149404327150699,0.006918758647201928,0.0016753692155883383,0.0007428429338893814
46.838957186120574,16.824580615260672,0.03356684559071273,0.029452998105608197,0.005677007124840919,0.005355031080414224,0.031987810124693365,0.029769523991685438,0.029219930286033795,0.02269987862290554,0.011149404327150699,0.006918758647201928,0.0016753692155883383,0.0007428429338893814
46.83893119276995,16.82456350273498,0.03356684559071273,0.029452998105608197,0.005677007124840919,0.005355031080414224,0.031987810124693365,0.029769523991685438,0.029219930286033795,0.02269987862290554,0.011149404327150699,0.006918758647201928,0.0016753692155883383,0.0007428429338893814
46.83890321372812,16.824545586489513,0.03356684559071273,0.029452998105608197,0.005677007124840919,0.005355031080414224,0.031987810124693365,0.029769523991685438,0.029219930286033795,0.02269987862290554,0.011149404327150699,0.006918758647201928,0.0016753692155883383,0.0007428429338893814
46.83887665017244,16.82452918583511,0.03356684559071273,0.029452998105608197,0.005677007124840919,0.005355031080414224,0.031987810124693365,0.029769523991685438,0.029219930286033795,0.02269987862290554,0.011149404327150699,0.006918758647201928,0.0016753692155883383,0.0007428429338893814
46.838842907512706,16.82450940106408,0.03356684559071273,0.029452998105608197,0.005677007124840919,0.005355031080414224,0.031987810124693365,0.029769523991685438,0.029219930286033795,0.02269987862290554,0.011149404327150699,0.006918758647201928,0.0016753692155883383,0.0007428429338893814
46.83881680101603,16.824494896642996,0.03356684559071273,0.029452998105608197,0.005677007124840919,0.005355031080414224,0.031987810124693365,0.029769523991685438,0.029219930286033795,0.02269987862290554,0.011149404327150699,0.006918758647201928,0.0016753692155883383,0.0007428429338893814
46.83879065645142,16.824481073176432,0.03356684559071273,0.029452998105608197,0.005677007124840919,0.005355031080414224,0.031987810124693365,0.029769523991685438,0.029219930286033795,0.02269987862290554,0.011149404327150699,0.006918758647201928,0.0016753692155883383,0.0007428429338893814
46.83876432729907,16.824467684838424,0.03356684559071273,0.029452998105608197,0.005677007124840919,0.005355031080414224,0.031987810124693365,0.029769523991685438,0.029219930286033795,0.02269987862290554,0.011149404327150699,0.006918758647201928,0.0016753692155883383,0.0007428429338893814
46.83873237847167,16.824452018097762,0.03356684559071273,0.029452998105608197,0.005677007124840919,0.005355031080414224,0.031987810124693365,0.029769523991685438,0.029219930286033795,0.02269987862290554,0.011149404327150699,0.006918758647201928,0.0016753692155883383,0.0007428429338893814
46.83870418843893,16.824438702498988,0.03356684559071273,0.029452998105608197,0.005677007124840919,0.005355031080414224,0.031987810124693365,0.029769523991685438,0.029219930286033795,0.02269987862290554,0.011149404327150699,0.006918758647201928,0.0016753692155883383,0.0007428429338893814
46.83867732912554,16.82442645715997,0.03356684559071273,0.029452998105608197,0.005677007124840919,0.005355031080414224,0.031987810124693365,0.029769523991685438,0.029219930286033795,0.02269987862290554,0.011149404327150699,0.006918758647201928,0.0016753692155883383,0.0007428429338893814
46.83864748022381,16.824413449362268,0.03356684559071273,0.029452998105608197,0.005677007124840919,0.005355031080414224,0.031987810124693365,0.029769523991685438,0.029219930286033795,0.02269987862290554,0.011149404327150699,0.006918758647201928,0.0016753692155883383,0.0007428429338893814
46.838622696235845,16.824403121956763,0.03356684559071273,0.029452998105608197,0.005677007124840919,0.005355031080414224,0.031987810124693365,0.029769523991685438,0.029219930286033795,0.02269987862290554,0.011149404327150699,0.006918758647201928,0.0016753692155883383,0.0007428429338893814
46.83859802732524,16.824393256866017,0.028294559576593478,0.13974968326292825,0.005277715856894708,0.0104254943269437,0.0689506531502611,0.12483541334183246,0.30875325584635527,0.17052528279337334,0.026484058755257882,0.03709231452783331,0.0013983557057846746,0.004341532447815372
46.838572452642694,16.824383466689326,0.028294559576593478,0.13974968326292825,0.005277715856894708,0.0104254943269437,0.0689506531502611,0.12483541334183246,0.30875325584635527,0.17052528279337334,0.026484058755257882,0.03709231452783331,0.0013983557057846746,0.004341532447815372
46.83854749489826,16.824374505703393,0.028294559576593478,0.13974968326292825,0.005277715856894708,0.0104254943269437,0.0689506531502611,0.12483541334183246,0.30875325584635527,0.17052528279337334,0.026484058755257882,0.03709231452783331,0.0013983557057846746,0.004341532447815372
46.838522501728136,16.824366195225217,0.028294559576593478,0.13974968326292825,0.005277715856894708,0.0104254943269437,0.0689506531502611,0.12483541334183246,0.30875325584635527,0.17052528279337334,0.026484058755257882,0.03709231452783331,0.0013983557057846746,0.004341532447815372
46.83849608102107,16.824358166261717,0.028294559576593478,0.13974968326292825,0.005277715856894708,0.0104254943269437,0.0689506531502611,0.12483541334183246,0.30875325584635527,0.17052528279337334,0.026484058755257882,0.03709231452783331,0.0013983557057846746,0.004341532447815372
46.83847955713895,16.824353484600596,0.07454122027534615,0.12888001365426757,0.00586879476269131,0.017120651751103003,0.06216629096073323,0.13098064817216504,0.028399518774819273,0.08756057694444047,0.012401160243288765,0.03358908434743938,0.010166517284697878,0.004358217100628102
46.838441418973275,16.824343784968782,0.07454122027534615,0.12888001365426757,0.00586879476269131,0.017120651751103003,0.06216629096073323,0.13098064817216504,0.028399518774819273,0.08756057694444047,0.012401160243288765,0.03358908434743938,0.010166517284697878,0.004358217100628102
46.83842514194181,16.824339711190756,0.07454122027534615,0.12888001365426757,0.00586879476269131,0.017120651751103003,0.06216629096073323,0.13098064817216504,0.028399518774819273,0.08756057694444047,0.012401160243288765,0.03358908434743938,0.010166517284697878,0.004358217100628102
46.83838464399587,16.824329835047408,0.07454122027534615,0.12888001365426757,0.00586879476269131,0.017120651751103003,0.06216629096073323,0.13098064817216504,0.028399518774819273,0.08756057694444047,0.012401160243288765,0.03358908434743938,0.010166517284697878,0.004358217100628102
46.83834540084122,16.824320804019614,0.07454122027534615,0.12888001365426757,0.00586879476269131,0.017120651751103003,0.06216629096073323,0.13098064817216504,0.028399518774819273,0.08756057694444047,0.012401160243288765,0.03358908434743938,0.010166517284697878,0.004358217100628102
46.838324275859065,16.82431712728173,0.011667813000408422,0.019772265125169074,0.007987420308140205,0.004242991414396325,0.0618673086641433,0.022685505704819184,0.04249179605381599,0.04137920835634392,0.004156188560546711,0.008523930749535858,0.0009002298288250822,0.00036375017953371226
46.838298843256965,16.8243137943444,0.011667813000408422,0.019772265125169074,0.007987420308140205,0.004242991414396325,0.0618673086641433,0.022685505704819184,0.04249179605381599,0.04137920835634392,0.004156188560546711,0.008523930749535858,0.0009002298288250822,0.00036375017953371226
46.838273145053094,16.824311606644443,0.011667813000408422,0.019772265125169074,0.007987420308140205,0.004242991414396325,0.0618673086641433,0.022685505704819184,0.04249179605381599,0.04137920835634392,0.004156188560546711,0.008523930749535858,0.0009002298288250822,0.00036375017953371226
46.83824613703727,16.824310485549347,0.011667813000408422,0.019772265125169074,0.007987420308140205,0.004242991414396325,0.0618673086641433,0.022685505704819184,0.04249179605381599,0.04137920835634392,0.004156188560546711,0.008523930749535858,0.0009002298288250822,0.00036375017953371226
46.83822064804233,16.824310459742545,0.011667813000408422,0.019772265125169074,0.007987420308140205,0.004242991414396325,0.0618673086641433,0.022685505704819184,0.04249179605381599,0.04137920835634392,0.004156188560546711,0.008523930749535858,0.0009002298288250822,0.00036375017953371226
46.83819435995941,16.824311456549694,0.011667813000408422,0.019772265125169074,0.007987420308140205,0.004242991414396325,0.0618673086641433,0.022685505704819184,0.04249179605381599,0.04137920835634392,0.004156188560546711,0.008523930749535858,0.0009002298288250822,0.00036375017953371226
46.83816674297931,16.824313686002633,0.011667813000408422,0.019772265125169074,0.007987420308140205,0.004242991414396325,0.0618673086641433,0.022685505704819184,0.04249179605381599,0.04137920835634392,0.004156188560546711,0.008523930749535858,0.0009002298288250822,0.00036375017953371226
46.838138116273775,16.82431735584565,0.011667813000408422,0.019772265125169074,0.007987420308140205,0.004242991414396325,0.0618673086641433,0.022685505704819184,0.04249179605381599,0.04137920835634392,0.004156188560546711,0.008523930749535858,0.0009002298288250822,0.00036375017953371226
46.838108397016924,16.82432278877148,0.011667813000408422,0.019772265125169074,0.007987420308140205,0.004242991414396325,0.0618673086641433,0.022685505704819184,0.04249179605381599,0.04137920835634392,0.004156188560546711,0.008523930749535858,0.0009002298288250822,0.00036375017953371226
46.83807882071013,16.82433007498059,0.011667813000408422,0.019772265125169074,0.007987420308140205,0.004242991414396325,0.0618673086641433,0.022685505704819184,0.04249179605381599,0.04137920835634392,0.004156188560546711,0.008523930749535858,0.0009002298288250822,0.00036375017953371226
46.838051107143954,16.824338726129227,0.03761090649024015,0.05649303041536468,0.012429737567717428,0.02487052789060807,0.15520648381533048,0.2702238713420583,0.2687228255819199,0.5461719564362756,0.02527862879630477,0.06329242962220297,0.0035108497304614785,0.0011511108596229708
46.83802469654083,16.824348760602962,0.03761090649024015,0.05649303041536468,0.012429737567717428,0.02487052789060807,0.15520648381533048,0.2702238713420583,0.2687228255819199,0.5461719564362756,0.02527862879630477,0.06329242962220297,0.0035108497304614785,0.0011511108596229708
46.83799797096897,16.82436045169473,0.03761090649024015,0.05649303041536468,0.012429737567717428,0.02487052789060807,0.15520648381533048,0.2702238713420583,0.2687228255819199,0.5461719564362756,0.02527862879630477,0.06329242962220297,0.0035108497304614785,0.0011511108596229708
46.83796651397997,16.82437553210434,0.03761090649024015,0.05649303041536468,0.012429737567717428,0.02487052789060807,0.15520648381533048,0.2702238713420583,0.2687228255819199,0.5461719564362756,0.02527862879630477,0.06329242962220297,0.0035108497304614785,0.0011511108596229708
46.837940498019314,16.824389030612046,0.03761090649024015,0.05649303041536468,0.012429737567717428,0.02487052789060807,0.15520648381533048,0.2702238713420583,0.2687228255819199,0.5461719564362756,0.02527862879630477,0.06329242962220297,0.0035108497304614785,0.0011511108596229708
46.83791474814009,16.824403257700162,0.04312901888793072,0.1367262107905602,0.011599078008847989,0.008324714810085886,0.04576431042046866,0.05502945313288796,0.12926113708888906,0.10213286503194782,0.14655326345981876,0.05981412838639716,0.01133225145910968,0.018551473895988844
46.83789047914608,16.82441717108806,0.04312901888793072,0.1367262107905602,0.011599078008847989,0.008324714810085886,0.04576431042046866,0.05502945313288796,0.12926113708888906,0.10213286503194782,0.14655326345981876,0.05981412838639716,0.01133225145910968,0.018551473895988844
46.83785896785126,16.824435772037496,0.04312901888793072,0.1367262107905602,0.011599078008847989,0.008324714810085886,0.04576431042046866,0.05502945313288796,0.12926113708888906,0.10213286503194782,0.14655326345981876,0.05981412838639716,0.01133225145910968,0.018551473895988844
46.83783290151568,16.82445164880077,0.04312901888793072,0.1367262107905602,0.011599078008847989,0.008324714810085886,0.04576431042046866,0.05502945313288796,0.12926113708888906,0.10213286503194782,0.14655326345981876,0.05981412838639716,0.01133225145910968,0.018551473895988844
46.8378020189578,16.82447131804703,0.04312901888793072,0.1367262107905602,0.011599078008847989,0.008324714810085886,0.04576431042046866,0.05502945313288796,0.12926113708888906,0.10213286503194782,0.14655326345981876,0.05981412838639716,0.01133225145910968,0.018551473895988844
46.83777565987277,16.82448989116945,0.03433051160411576,0.08252002276528393,0.005436699704545509,0.011222599671225292,0.06355636974808225,0.19462537865749557,0.20042868857962587,0.06522509980691249,0.00844085472781004,0.027554653501160226,0.0006431750043436814,0.001207671941062321
46.837744857893796,16.824513944801303,0.03433051160411576,0.08252002276528393,0.005436699704545509,0.011222599671225292,0.06355636974808225,0.19462537865749557,0.20042868857962587,0.06522509980691249,0.00844085472781004,0.027554653501160226,0.0006431750043436814,0.001207671941062321
46.837718904636866,16.824536121167977,0.03433051160411576,0.08252002276528393,0.005436699704545509,0.011222599671225292,0.06355636974808225,0.19462537865749557,0.20042868857962587,0.06522509980691249,0.00844085472781004,0.027554653501160226,0.0006431750043436814,0.001207671941062321
46.837699481236506,16.8245531761094,0.03433051160411576,0.08252002276528393,0.005436699704545509,0.011222599671225292,0.06355636974808225,0.19462537865749557,0.20042868857962587,0.06522509980691249,0.00844085472781004,0.027554653501160226,0.0006431750043436814,0.001207671941062321
46.837645050143195,16.82459820827152,0.03433051160411576,0.08252002276528393,0.005436699704545509,0.011222599671225292,0.06355636974808225,0.19462537865749557,0.20042868857962587,0.06522509980691249,0.00844085472781004,0.027554653501160226,0.0006431750043436814,0.001207671941062321
46.83762061184354,16.824617320468057,0.033058502304977144,0.042634882620137975,0.004620171322755835,0.00962547867234008,0.02854005051348956,0.043208486120013434,0.041940180683662516,0.06650295872019558,0.0052530550439915885,0.011182611361222124,0.003147536826512954,0.0010721530863888383
46.83757376299602,16.82465224312953,0.033058502304977144,0.042634882620137975,0.004620171322755835,0.00962547867234008,0.02854005051348956,0.043208486120013434,0.041940180683662516,0.06650295872019558,0.0052530550439915885,0.011182611361222124,0.003147536826512954,0.0010721530863888383
46.837555981054315,16.824664965388337,0.033058502304977144,0.042634882620137975,0.004620171322755835,0.00962547867234008,0.02854005051348956,0.043208486120013434,0.041940180683662516,0.06650295872019558,0.0052530550439915885,0.011182611361222124,0.003147536826512954,0.0010721530863888383
46.83751750510872,16.824691873049407,0.033058502304977144,0.042634882620137975,0.004620171322755835,0.00962547867234008,0.02854005051348956,0.043208486120013434,0.041940180683662516,0.06650295872019558,0.0052530550439915885,0.011182611361222124,0.003147536826512954,0.0010721530863888383
46.83750506560665,16.824700461437825,0.033058502304977144,0.042634882620137975,0.004620171322755835,0.00962547867234008,0.02854005051348956,0.043208486120013434,0.041940180683662516,0.06650295872019558,0.0052530550439915885,0.011182611361222124,0.003147536826512954,0.0010721530863888383
46.837471259983644,16.824723692613986,0.033058502304977144,0.042634882620137975,0.004620171322755835,0.00962547867234008,0.02854005051348956,0.043208486120013434,0.041940180683662516,0.06650295872019558,0.0052530550439915885,0.011182611361222124,0.003147536826512954,0.0010721530863888383
46.837443637268315,16.824742516592725,0.033058502304977144,0.042634882620137975,0.004620171322755835,0.00962547867234008,0.02854005051348956,0.043208486120013434,0.041940180683662516,0.06650295872019558,0.0052530550439915885,0.011182611361222124,0.003147536826512954,0.0010721530863888383
46.83741294028251,16.824763226078236,0.033058502304977144,0.042634882620137975,0.004620171322755835,0.00962547867234008,0.02854005051348956,0.043208486120013434,0.041940180683662516,0.06650295872019558,0.0052530550439915885,0.011182611361222124,0.003147536826512954,0.0010721530863888383
46.837388002570464,16.824779841956147,0.033058502304977144,0.042634882620137975,0.004620171322755835,0.00962547867234008,0.02854005051348956,0.043208486120013434,0.041940180683662516,0.06650295872019558,0.0052530550439915885,0.011182611361222124,0.003147536826512954,0.0010721530863888383
46.83736169052381,16.82479717298155,0.033058502304977144,0.042634882620137975,0.004620171322755835,0.00962547867234008,0.02854005051348956,0.043208486120013434,0.041940180683662516,0.06650295872019558,0.0052530550439915885,0.011182611361222124,0.003147536826512954,0.0010721530863888383
46.83733445503271,16.824814881913838,0.03154151288030908,0.08807861559390028,0.009009876606469066,0.025250318163575234,0.25889915936001956,0.3165223593108899,0.4805578122579942,0.4923166544029212,0.05493265781682846,0.06390532511765859,0.0007186247009603399,0.0012375042360926736
46.83730254700238,16.824835072676006,0.03154151288030908,0.08807861559390028,0.009009876606469066,0.025250318163575234,0.25889915936001956,0.3165223593108899,0.4805578122579942,0.4923166544029212,0.05493265781682846,0.06390532511765859,0.0007186247009603399,0.0012375042360926736
46.83727820910171,16.824849979719957,0.03154151288030908,0.08807861559390028,0.009009876606469066,0.025250318163575234,0.25889915936001956,0.3165223593108899,0.4805578122579942,0.4923166544029212,0.05493265781682846,0.06390532511765859,0.0007186247009603399,0.0012375042360926736
46.83724211716051,16.824871448815358,0.03154151288030908,0.08807861559390028,0.009009876606469066,0.025250318163575234,0.25889915936001956,0.3165223593108899,0.4805578122579942,0.4923166544029212,0.05493265781682846,0.06390532511765859,0.0007186247009603399,0.0012375042360926736
46.83720317856117,16.824907796906043,0.03154151288030908,0.08807861559390028,0.009009876606469066,0.025250318163575234,0.25889915936001956,0.3165223593108899,0.4805578122579942,0.4923166544029212,0.05493265781682846,0.06390532511765859,0.0007186247009603399,0.0012375042360926736
46.83717785194929,16.8249457140797,0.06981780984922206,0.09363588556446142,0.027267869142917806,0.04143519351820359,0.058552819831473514,0.17742201659256465,0.09915149683916455,0.23565366631078283,0.014800906289646941,0.03860109501838956,0.0030858900364917376,0.002714151980267072
46.83713527291077,16.82501851853048,0.06981780984922206,0.09363588556446142,0.027267869142917806,0.04143519351820359,0.058552819831473514,0.17742201659256465,0.09915149683916455,0.23565366631078283,0.014800906289646941,0.03860109501838956,0.0030858900364917376,0.002714151980267072
46.83709907362397,16.82505467677284,0.06981780984922206,0.09363588556446142,0.027267869142917806,0.04143519351820359,0.058552819831473514,0.17742201659256465,0.09915149683916455,0.23565366631078283,0.014800906289646941,0.03860109501838956,0.0030858900364917376,0.002714151980267072
46.83707078151199,16.825070784762914,0.06981780984922206,0.09363588556446142,0.027267869142917806,0.04143519351820359,0.058552819831473514,0.17742201659256465,0.09915149683916455,0.23565366631078283,0.014800906289646941,0.03860109501838956,0.0030858900364917376,0.002714151980267072
46.83703938136165,16.825085369644533,0.06981780984922206,0.09363588556446142,0.027267869142917806,0.04143519351820359,0.058552819831473514,0.17742201659256465,0.09915149683916455,0.23565366631078283,0.014800906289646941,0.03860109501838956,0.0030858900364917376,0.002714151980267072
46.83700879123138,16.825098711803694,0.017286180222633903,0.05227572742531541,0.007957003980352914,0.013506844002762218,0.01588332715809467,0.06781305838659875,0.07052452531873525,0.10200758228981664,0.005557830985185935,0.01041933380096773,0.002020125750180722,0.0013897252983577195
46.83698721647844,16.825107649390556,0.017286180222633903,0.05227572742531541,0.007957003980352914,0.013506844002762218,0.01588332715809467,0.06781305838659875,0.07052452531873525,0.10200758228981664,0.005557830985185935,0.01041933380096773,0.002020125750180722,0.0013897252983577195
46.83696061627688,16.82511832420725,0.017286180222633903,0.05227572742531541,0.007957003980352914,0.013506844002762218,0.01588332715809467,0.06781305838659875,0.07052452531873525,0.10200758228981664,0.005557830985185935,0.01041933380096773,0.002020125750180722,0.0013897252983577195
46.83693625513455,16.825128551613638,0.017286180222633903,0.05227572742531541,0.007957003980352914,0.013506844002762218,0.01588332715809467,0.06781305838659875,0.07052452531873525,0.10200758228981664,0.005557830985185935,0.01041933380096773,0.002020125750180722,0.0013897252983577195
46.83690720735538,16.825141487082092,0.017286180222633903,0.05227572742531541,0.007957003980352914,0.013506844002762218,0.01588332715809467,0.06781305838659875,0.07052452531873525,0.10200758228981664,0.005557830985185935,0.01041933380096773,0.002020125750180722,0.0013897252983577195
46.83688744250924,16.825150726580215,0.017286180222633903,0.05227572742531541,0.007957003980352914,0.013506844002762218,0.01588332715809467,0.06781305838659875,0.07052452531873525,0.10200758228981664,0.005557830985185935,0.01041933380096773,0.002020125750180722,0.0013897252983577195
46.836851643970384,16.82516838235184,0.017286180222633903,0.05227572742531541,0.007957003980352914,0.013506844002762218,0.01588332715809467,0.06781305838659875,0.07052452531873525,0.10200758228981664,0.005557830985185935,0.01041933380096773,0.002020125750180722,0.0013897252983577195
46.836824331142374,16.82518132875852,0.017286180222633903,0.05227572742531541,0.007957003980352914,0.013506844002762218,0.01588332715809467,0.06781305838659875,0.07052452531873525,0.10200758228981664,0.005557830985185935,0.01041933380096773,0.002020125750180722,0.0013897252983577195
46.83679517912496,16.82519425735365,0.017286180222633903,0.05227572742531541,0.007957003980352914,0.013506844002762218,0.01588332715809467,0.06781305838659875,0.07052452531873525,0.10200758228981664,0.005557830985185935,0.01041933380096773,0.002020125750180722,0.0013897252983577195
46.83676977474108,16.82520479110507,0.017286180222633903,0.05227572742531541,0.007957003980352914,0.013506844002762218,0.01588332715809467,0.06781305838659875,0.07052452531873525,0.10200758228981664,0.005557830985185935,0.01041933380096773,0.002020125750180722,0.0013897252983577195
46.836744516855575,16.825214605504677,0.017286180222633903,0.05227572742531541,0.007957003980352914,0.013506844002762218,0.01588332715809467,0.06781305838659875,0.07052452531873525,0.10200758228981664,0.005557830985185935,0.01041933380096773,0.002020125750180722,0.0013897252983577195
46.83671684601998,16.825224741012725,0.017286180222633903,0.05227572742531541,0.007957003980352914,0.013506844002762218,0.01588332715809467,0.06781305838659875,0.07052452531873525,0.10200758228981664,0.005557830985185935,0.01041933380096773,0.002020125750180722,0.0013897252983577195
46.8366914184835,16.82523352571452,0.017286180222633903,0.05227572742531541,0.007957003980352914,0.013506844002762218,0.01588332715809467,0.06781305838659875,0.07052452531873525,0.10200758228981664,0.005557830985185935,0.01041933380096773,0.002020125750180722,0.0013897252983577195
46.83666537815173,16.825241987676197,0.017286180222633903,0.05227572742531541,0.007957003980352914,0.013506844002762218,0.01588332715809467,0.06781305838659875,0.07052452531873525,0.10200758228981664,0.005557830985185935,0.01041933380096773,0.002020125750180722,0.0013897252983577195
46.83663734175346,16.825250489889395,0.017286180222633903,0.05227572742531541,0.007957003980352914,0.013506844002762218,0.01588332715809467,0.06781305838659875,0.07052452531873525,0.10200758228981664,0.005557830985185935,0.01041933380096773,0.002020125750180722,0.0013897252983577195
46.83661181382805,16.825257900577036,0.009192688271607824,0.04472576724498272,0.0039312703069185485,0.007638277182117715,0.030840761634241765,0.058142628391144466,0.20914616403944084,0.15870525350354708,0.0181443893845573,0.027425689910812893,0.0011991659378567299,0.001283252291138
46.83658202527133,16.825266320131696,0.009192688271607824,0.04472576724498272,0.0039312703069185485,0.007638277182117715,0.030840761634241765,0.058142628391144466,0.20914616403944084,0.15870525350354708,0.0181443893845573,0.027425689910812893,0.0011991659378567299,0.001283252291138
46.83655321643872,16.825274223976326,0.009192688271607824,0.04472576724498272,0.0039312703069185485,0.007638277182117715,0.030840761634241765,0.058142628391144466,0.20914616403944084,0.15870525350354708,0.0181443893845573,0.027425689910812893,0.0011991659378567299,0.001283252291138
46.836528770481394,16.825280747962005,0.009192688271607824,0.04472576724498272,0.0039312703069185485,0.007638277182117715,0.030840761634241765,0.058142628391144466,0.20914616403944084,0.15870525350354708,0.0181443893845573,0.027425689910812893,0.0011991659378567299,0.001283252291138
46.83650291572728,16.825287647774473,0.009192688271607824,0.04472576724498272,0.0039312703069185485,0.007638277182117715,0.030840761634241765,0.058142628391144466,0.20914616403944084,0.15870525350354708,0.0181443893845573,0.027425689910812893,0.0011991659378567299,0.001283252291138
46.836478610093216,16.825294215557836,0.043862514382437226,0.09842934651795959,0.008689660948606045,0.013074291677893585,0.08802450928328862,0.10211511085919306,0.3365861267371326,0.5701071149996502,0.026676456702594616,0.01768132622333642,0.0008146462384952891,0.0017729371583494252
46.836453961955364,16.82530095505578,0.043862514382437226,0.09842934651795959,0.008689660948606045,0.013074291677893585,0.08802450928328862,0.10211511085919306,0.3365861267371326,0.5701071149996502,0.026676456702594616,0.01768132622333642,0.0008146462384952891,0.0017729371583494252
46.83642936223192,16.82530775950382,0.043862514382437226,0.09842934651795959,0.008689660948606045,0.013074291677893585,0.08802450928328862,0.10211511085919306,0.3365861267371326,0.5701071149996502,0.026676456702594616,0.01768132622333642,0.0008146462384952891,0.0017729371583494252
46.83640177085556,16.825315596811922,0.043862514382437226,0.09842934651795959,0.008689660948606045,0.013074291677893585,0.08802450928328862,0.10211511085919306,0.3365861267371326,0.5701071149996502,0.026676456702594616,0.01768132622333642,0.0008146462384952891,0.0017729371583494252
46.836377877479606,16.825322702012247,0.043862514382437226,0.09842934651795959,0.008689660948606045,0.013074291677893585,0.08802450928328862,0.10211511085919306,0.3365861267371326,0.5701071149996502,0.026676456702594616,0.01768132622333642,0.0008146462384952891,0.0017729371583494252
46.83635127346023,16.82533098447702,0.05357557242814089,0.03769137164072983,0.003798522597084904,0.0043738616532566915,0.02260335040054556,0.04046115693777083,0.03862061783718666,0.05585863643447932,0.005720862388048587,0.013573128668601716,0.009630217717346711,0.001632886166373592
46.8363294174351,16.82533807535563,0.05357557242814089,0.03769137164072983,0.003798522597084904,0.0043738616532566915,0.02260335040054556,0.04046115693777083,0.03862061783718666,0.05585863643447932,0.005720862388048587,0.013573128668601716,0.009630217717346711,0.001632886166373592
46.836300956693975,16.825346155977996,0.05357557242814089,0.03769137164072983,0.003798522597084904,0.0043738616532566915,0.02260335040054556,0.04046115693777083,0.03862061783718666,0.05585863643447932,0.005720862388048587,0.013573128668601716,0.009630217717346711,0.001632886166373592
46.83626970625917,16.825347309989322,0.05357557242814089,0.03769137164072983,0.003798522597084904,0.0043738616532566915,0.02260335040054556,0.04046115693777083,0.03862061783718666,0.05585863643447932,0.005720862388048587,0.013573128668601716,0.009630217717346711,0.001632886166373592
46.83624514836953,16.825342780157698,0.05357557242814089,0.03769137164072983,0.003798522597084904,0.0043738616532566915,0.02260335040054556,0.04046115693777083,0.03862061783718666,0.05585863643447932,0.005720862388048587,0.013573128668601716,0.009630217717346711,0.001632886166373592
46.83621950433842,16.82533342739891,0.05357557242814089,0.03769137164072983,0.003798522597084904,0.0043738616532566915,0.02260335040054556,0.04046115693777083,0.03862061783718666,0.05585863643447932,0.005720862388048587,0.013573128668601716,0.009630217717346711,0.001632886166373592
46.836191257844234,16.825319431997844,0.05357557242814089,0.03769137164072983,0.003798522597084904,0.0043738616532566915,0.02260335040054556,0.04046115693777083,0.03862061783718666,0.05585863643447932,0.005720862388048587,0.013573128668601716,0.009630217717346711,0.001632886166373592
46.836160843995124,16.825308095032362,0.05357557242814089,0.03769137164072983,0.003798522597084904,0.0043738616532566915,0.02260335040054556,0.04046115693777083,0.03862061783718666,0.05585863643447932,0.005720862388048587,0.013573128668601716,0.009630217717346711,0.001632886166373592
46.83613640710746,16.825302971111764,0.05357557242814089,0.03769137164072983,0.003798522597084904,0.0043738616532566915,0.02260335040054556,0.04046115693777083,0.03862061783718666,0.05585863643447932,0.005720862388048587,0.013573128668601716,0.009630217717346711,0.001632886166373592
46.83610688059875,16.82530214252276,0.05357557242814089,0.03769137164072983,0.003798522597084904,0.0043738616532566915,0.02260335040054556,0.04046115693777083,0.03862061783718666,0.05585863643447932,0.005720862388048587,0.013573128668601716,0.009630217717346711,0.001632886166373592
46.8360815240288,16.825305941712486,0.011565608349807162,0.02131825812537546,0.0015155673820477582,0.004891870023251174,0.07263628757423257,0.10655597008943773,0.041679130044781916,0.14807594877772842,0.0056150701568012775,0.006733418497779179,0.0009258172215479745,0.0009923656157355804
46.83605591302705,16.82530993099763,0.011565608349807162,0.02131825812537546,0.0015155673820477582,0.004891870023251174,0.07263628757423257,0.10655597008943773,0.041679130044781916,0.14807594877772842,0.0056150701568012775,0.006733418497779179,0.0009258172215479745,0.0009923656157355804
46.83602634680058,16.8253139476164,0.011565608349807162,0.02131825812537546,0.0015155673820477582,0.004891870023251174,0.07263628757423257,0.10655597008943773,0.041679130044781916,0.14807594877772842,0.0056150701568012775,0.006733418497779179,0.0009258172215479745,0.0009923656157355804
46.836009852733916,16.8253159175443,0.011565608349807162,0.02131825812537546,0.0015155673820477582,0.004891870023251174,0.07263628757423257,0.10655597008943773,0.041679130044781916,0.14807594877772842,0.0056150701568012775,0.006733418497779179,0.0009258172215479745,0.0009923656157355804
46.83597008014932,16.825319898001307,0.011565608349807162,0.02131825812537546,0.0015155673820477582,0.004891870023251174,0.07263628757423257,0.10655597008943773,0.041679130044781916,0.14807594877772842,0.0056150701568012775,0.006733418497779179,0.0009258172215479745,0.0009923656157355804
46.83594422397064,16.825322143625222,0.014490466698658793,0.04011691513679723,0.037765752015431954,0.04507086034147031,0.0823376606708597,0.19268295093371726,0.1260052559775471,0.17590334839054056,0.031193932438022726,0.034766884880916504,0.0013226914504027457,0.0009923656157355804
46.83591658255543,16.825324255278264,0.014490466698658793,0.04011691513679723,0.037765752015431954,0.04507086034147031,0.0823376606708597,0.19268295093371726,0.1260052559775471,0.17590334839054056,0.031193932438022726,0.034766884880916504,0.0013226914504027457,0.0009923656157355804
46.83588946794032,16.825326069910783,0.014490466698658793,0.04011691513679723,0.037765752015431954,0.04507086034147031,0.0823376606708597,0.19268295093371726,0.1260052559775471,0.17590334839054056,0.031193932438022726,0.034766884880916504,0.0013226914504027457,0.0009923656157355804
46.835865099999424,16.82532794542439,0.014490466698658793,0.04011691513679723,0.037765752015431954,0.04507086034147031,0.0823376606708597,0.19268295093371726,0.1260052559775471,0.17590334839054056,0.031193932438022726,0.034766884880916504,0.0013226914504027457,0.0009923656157355804
46.83581816919964,16.825332761838123,0.014490466698658793,0.04011691513679723,0.037765752015431954,0.04507086034147031,0.0823376606708597,0.19268295093371726,0.1260052559775471,0.17590334839054056,0.031193932438022726,0.034766884880916504,0.0013226914504027457,0.0009923656157355804
46.83579179742923,16.825336027369215,0.07953953184850461,0.1624549622500458,0.046024875986837466,0.04955291344381927,0.7142434447672587,0.42372962011484244,0.3643368473143205,0.6057143434585128,0.05043885778867359,0.08706067138273443,0.004299317440265166,0.0041656948472638755
46.835762125734,16.8253394518467,0.07953953184850461,0.1624549622500458,0.046024875986837466,0.04955291344381927,0.7142434447672587,0.42372962011484244,0.3643368473143205,0.6057143434585128,0.05043885778867359,0.08706067138273443,0.004299317440265166,0.0041656948472638755
46.835722922047296,16.825343380456058,0.07953953184850461,0.1624549622500458,0.046024875986837466,0.04955291344381927,0.7142434447672587,0.42372962011484244,0.3643368473143205,0.6057143434585128,0.05043885778867359,0.08706067138273443,0.004299317440265166,0.0041656948472638755
46.83569654083623,16.825345794613057,0.07953953184850461,0.1624549622500458,0.046024875986837466,0.04955291344381927,0.7142434447672587,0.42372962011484244,0.3643368473143205,0.6057143434585128,0.05043885778867359,0.08706067138273443,0.004299317440265166,0.0041656948472638755
46.83566734667139,16.82534848833917,0.07953953184850461,0.1624549622500458,0.046024875986837466,0.04955291344381927,0.7142434447672587,0.42372962011484244,0.3643368473143205,0.6057143434585128,0.05043885778867359,0.08706067138273443,0.004299317440265166,0.0041656948472638755
46.83564987400989,16.82535011421534,0.051269303490833876,0.04011691513679723,0.02057826986628454,0.03790642603020126,0.2939893299000346,0.4314487521901228,0.29699349732467295,0.37687234623808724,0.03410486808043053,0.05914611186784248,0.002333599688697709,0.0009923656157355804
46.83560866924572,16.825353999029435,0.051269303490833876,0.04011691513679723,0.02057826986628454,0.03790642603020126,0.2939893299000346,0.4314487521901228,0.29699349732467295,0.37687234623808724,0.03410486808043053,0.05914611186784248,0.002333599688697709,0.0009923656157355804
46.83557720736822,16.825356990750507,0.051269303490833876,0.04011691513679723,0.02057826986628454,0.03790642603020126,0.2939893299000346,0.4314487521901228,0.29699349732467295,0.37687234623808724,0.03410486808043053,0.05914611186784248,0.002333599688697709,0.0009923656157355804
46.83553267735048,16.82536122818341,0.051269303490833876,0.04011691513679723,0.02057826986628454,0.03790642603020126,0.2939893299000346,0.4314487521901228,0.29699349732467295,0.37687234623808724,0.03410486808043053,0.05914611186784248,0.002333599688697709,0.0009923656157355804
46.83551385601034,16.825362239792117,0.051269303490833876,0.04011691513679723,0.02057826986628454,0.03790642603020126,0.2939893299000346,0.4314487521901228,0.29699349732467295,0.37687234623808724,0.03410486808043053,0.05914611186784248,0.002333599688697709,0.0009923656157355804
46.83548232319607,16.82536279665454,0.047151599210279636,0.11305288272811842,0.024221687720830682,0.014005846377209284,0.25698599169225167,0.10444141468934355,0.1059853653120227,0.08581990574129579,0.016202156473188654,0.022673820402201658,0.0034517467729535695,0.0012557267367726303
46.835450233692676,16.825361825333346,0.047151599210279636,0.11305288272811842,0.024221687720830682,0.014005846377209284,0.25698599169225167,0.10444141468934355,0.1059853653120227,0.08581990574129579,0.016202156473188654,0.022673820402201658,0.0034517467729535695,0.0012557267367726303
46.83540441850434,16.825361444536096,0.047151599210279636,0.11305288272811842,0.024221687720830682,0.014005846377209284,0.25698599169225167,0.10444141468934355,0.1059853653120227,0.08581990574129579,0.016202156473188654,0.022673820402201658,0.0034517467729535695,0.0012557267367726303
46.835384631749896,16.82536268806889,0.047151599210279636,0.11305288272811842,0.024221687720830682,0.014005846377209284,0.25698599169225167,0.10444141468934355,0.1059853653120227,0.08581990574129579,0.016202156473188654,0.022673820402201658,0.0034517467729535695,0.0012557267367726303
46.83535527401741,16.82536548161178,0.047151599210279636,0.11305288272811842,0.024221687720830682,0.014005846377209284,0.25698599169225167,0.10444141468934355,0.1059853653120227,0.08581990574129579,0.016202156473188654,0.022673820402201658,0.0034517467729535695,0.0012557267367726303
46.835330913221924,16.825368709023945,0.043494926226968156,0.08165589920200285,0.005473181390793687,0.01290356642858846,0.03398520516833087,0.1245192728815347,0.09008150161338782,0.1858981568791498,0.0064403804347239755,0.02294007411856099,0.00020938145970205468,0.0006468187108300073
46.835299559817656,16.825373361005443,0.043494926226968156,0.08165589920200285,0.005473181390793687,0.01290356642858846,0.03398520516833087,0.1245192728815347,0.09008150161338782,0.1858981568791498,0.0064403804347239755,0.02294007411856099,0.00020938145970205468,0.0006468187108300073
46.83527303611588,16.825377620344817,0.043494926226968156,0.08165589920200285,0.005473181390793687,0.01290356642858846,0.03398520516833087,0.1245192728815347,0.09008150161338782,0.1858981568791498,0.0064403804347239755,0.02294007411856099,0.00020938145970205468,0.0006468187108300073
46.835246559083835,16.825382180120528,0.043494926226968156,0.08165589920200285,0.005473181390793687,0.01290356642858846,0.03398520516833087,0.1245192728815347,0.09008150161338782,0.1858981568791498,0.0064403804347239755,0.02294007411856099,0.00020938145970205468,0.0006468187108300073
46.83521790865386,16.825387408103285,0.043494926226968156,0.08165589920200285,0.005473181390793687,0.01290356642858846,0.03398520516833087,0.1245192728815347,0.09008150161338782,0.1858981568791498,0.0064403804347239755,0.02294007411856099,0.00020938145970205468,0.0006468187108300073
46.835172495064974,16.82539455402042,0.03294242411560301,0.10419142843950047,0.0030055774282814716,0.01201303075815188,0.05933230342577982,0.16359161821889165,0.10804097471476973,0.12154989216617815,0.010406309574891937,0.026928329372086335,0.0005743770525422623,0.0008684375430125765
46.83516203221879,16.82539575460386,0.03294242411560301,0.10419142843950047,0.0030055774282814716,0.01201303075815188,0.05933230342577982,0.16359161821889165,0.10804097471476973,0.12154989216617815,0.010406309574891937,0.026928329372086335,0.0005743770525422623,0.0008684375430125765
46.83513609030095,16.825398564044736,0.03294242411560301,0.10419142843950047,0.0030055774282814716,0.01201303075815188,0.05933230342577982,0.16359161821889165,0.10804097471476973,0.12154989216617815,0.010406309574891937,0.026928329372086335,0.0005743770525422623,0.0008684375430125765
46.8351066172905,16.82540099404598,0.03294242411560301,0.10419142843950047,0.0030055774282814716,0.01201303075815188,0.05933230342577982,0.16359161821889165,0.10804097471476973,0.12154989216617815,0.010406309574891937,0.026928329372086335,0.0005743770525422623,0.0008684375430125765
46.83506211722441,16.825404981288848,0.03294242411560301,0.10419142843950047,0.0030055774282814716,0.01201303075815188,0.05933230342577982,0.16359161821889165,0.10804097471476973,0.12154989216617815,0.010406309574891937,0.026928329372086335,0.0005743770525422623,0.0008684375430125765
46.8350500164017,16.825406369165854,0.029885277549134923,0.12746828533324536,0.01161761438781035,0.03937732800138031,0.1414157567771174,0.4973000029656818,0.15209764274778143,0.36319559120293077,0.011162196953093674,0.039759033421645475,0.0026985887674650065,0.0071756124655912275
46.83502278154579,16.82540967603514,0.029885277549134923,0.12746828533324536,0.01161761438781035,0.03937732800138031,0.1414157567771174,0.4973000029656818,0.15209764274778143,0.36319559120293077,0.011162196953093674,0.039759033421645475,0.0026985887674650065,0.0071756124655912275
46.834995893536835,16.825413442339993,0.029885277549134923,0.12746828533324536,0.01161761438781035,0.03937732800138031,0.1414157567771174,0.4973000029656818,0.15209764274778143,0.36319559120293077,0.011162196953093674,0.039759033421645475,0.0026985887674650065,0.0071756124655912275
46.83496976628733,16.825417835738097,0.029885277549134923,0.12746828533324536,0.01161761438781035,0.03937732800138031,0.1414157567771174,0.4973000029656818,0.15209764274778143,0.36319559120293077,0.011162196953093674,0.039759033421645475,0.0026985887674650065,0.0071756124655912275
46.83494319418781,16.825423193452657,0.029885277549134923,0.12746828533324536,0.01161761438781035,0.03937732800138031,0.1414157567771174,0.4973000029656818,0.15209764274778143,0.36319559120293077,0.011162196953093674,0.039759033421645475,0.0026985887674650065,0.0071756124655912275
46.83490493935403,16.825432628396474,0.07046860294476212,0.19316532967121283,0.004837069820305304,0.028524578578704957,0.12014358428947329,0.38611513933973474,0.09981042185289328,0.14133998180094426,0.021369493264640434,0.04050099102739522,0.005456302824202146,0.002442642025171835
46.83487687978628,16.825439796187187,0.07046860294476212,0.19316532967121283,0.004837069820305304,0.028524578578704957,0.12014358428947329,0.38611513933973474,0.09981042185289328,0.14133998180094426,0.021369493264640434,0.04050099102739522,0.005456302824202146,0.002442642025171835
46.83484571432274,16.825445352556745,0.07046860294476212,0.19316532967121283,0.004837069820305304,0.028524578578704957,0.12014358428947329,0.38611513933973474,0.09981042185289328,0.14133998180094426,0.021369493264640434,0.04050099102739522,0.005456302824202146,0.002442642025171835
46.8348214208469,16.825448083859897,0.07046860294476212,0.19316532967121283,0.004837069820305304,0.028524578578704957,0.12014358428947329,0.38611513933973474,0.09981042185289328,0.14133998180094426,0.021369493264640434,0.04050099102739522,0.005456302824202146,0.002442642025171835
46.834791161813776,16.825450047126864,0.07046860294476212,0.19316532967121283,0.004837069820305304,0.028524578578704957,0.12014358428947329,0.38611513933973474,0.09981042185289328,0.14133998180094426,0.021369493264640434,0.04050099102739522,0.005456302824202146,0.002442642025171835
46.834760461971754,16.825454591738147,0.03934575127557375,0.06967735251623054,0.004236778398822774,0.014523949453935247,0.0721140494683092,0.15169038466108684,0.06913980969572253,0.07399242522896642,0.009009711071822546,0.02738759426795306,0.0005634948717788511,0.0009623481319996263
46.83473900926486,16.82545977208095,0.03934575127557375,0.06967735251623054,0.004236778398822774,0.014523949453935247,0.0721140494683092,0.15169038466108684,0.06913980969572253,0.07399242522896642,0.009009711071822546,0.02738759426795306,0.0005634948717788511,0.0009623481319996263
46.83469982496882,16.825474851637523,0.03934575127557375,0.06967735251623054,0.004236778398822774,0.014523949453935247,0.0721140494683092,0.15169038466108684,0.06913980969572253,0.07399242522896642,0.009009711071822546,0.02738759426795306,0.0005634948717788511,0.0009623481319996263
46.83467442775392,16.82548817478703,0.03934575127557375,0.06967735251623054,0.004236778398822774,0.014523949453935247,0.0721140494683092,0.15169038466108684,0.06913980969572253,0.07399242522896642,0.009009711071822546,0.02738759426795306,0.0005634948717788511,0.0009623481319996263
46.8346432160198,16.825508802230388,0.03934575127557375,0.06967735251623054,0.004236778398822774,0.014523949453935247,0.0721140494683092,0.15169038466108684,0.06913980969572253,0.07399242522896642,0.009009711071822546,0.02738759426795306,0.0005634948717788511,0.0009623481319996263
46.834617096707426,16.825529818147317,0.04096856073713013,0.05598386265945265,0.00820507339921445,0.025210945125866278,0.15294932420854263,0.4596083926898053,0.07196562513476486,0.2189942219116008,0.04349100113370342,0.062497218107091856,0.0014412029926036522,0.0009923656157355804
46.834582751022175,16.825562235194912,0.04096856073713013,0.05598386265945265,0.00820507339921445,0.025210945125866278,0.15294932420854263,0.4596083926898053,0.07196562513476486,0.2189942219116008,0.04349100113370342,0.062497218107091856,0.0014412029926036522,0.0009923656157355804
46.834551892437545,16.82559384220299,0.04096856073713013,0.05598386265945265,0.00820507339921445,0.025210945125866278,0.15294932420854263,0.4596083926898053,0.07196562513476486,0.2189942219116008,0.04349100113370342,0.062497218107091856,0.0014412029926036522,0.0009923656157355804
46.83452234590547,16.825626322838666,0.04096856073713013,0.05598386265945265,0.00820507339921445,0.025210945125866278,0.15294932420854263,0.4596083926898053,0.07196562513476486,0.2189942219116008,0.04349100113370342,0.062497218107091856,0.0014412029926036522,0.0009923656157355804
46.834487737974094,16.825667899869135,0.04096856073713013,0.05598386265945265,0.00820507339921445,0.025210945125866278,0.15294932420854263,0.4596083926898053,0.07196562513476486,0.2189942219116008,0.04349100113370342,0.062497218107091856,0.0014412029926036522,0.0009923656157355804
46.83445925575658,16.825705568799837,0.026445068011583018,0.18099616263882398,0.03001741948347949,0.06185357864972955,0.11175739780250839,0.3303214353057336,0.13461922519980143,0.2253315115097367,0.008077290633390707,0.034021335493173384,0.008443824415689753,0.0045784706428701714
46.834436529493615,16.82573730694736,0.026445068011583018,0.18099616263882398,0.03001741948347949,0.06185357864972955,0.11175739780250839,0.3303214353057336,0.13461922519980143,0.2253315115097367,0.008077290633390707,0.034021335493173384,0.008443824415689753,0.0045784706428701714
46.8343780373332,16.825831169948618,0.026445068011583018,0.18099616263882398,0.03001741948347949,0.06185357864972955,0.11175739780250839,0.3303214353057336,0.13461922519980143,0.2253315115097367,0.008077290633390707,0.034021335493173384,0.008443824415689753,0.0045784706428701714
46.834349752536816,16.82588385132858,0.026445068011583018,0.18099616263882398,0.03001741948347949,0.06185357864972955,0.11175739780250839,0.3303214353057336,0.13461922519980143,0.2253315115097367,0.008077290633390707,0.034021335493173384,0.008443824415689753,0.0045784706428701714
46.83427655332145,16.82606000560415,0.026445068011583018,0.18099616263882398,0.03001741948347949,0.06185357864972955,0.11175739780250839,0.3303214353057336,0.13461922519980143,0.2253315115097367,0.008077290633390707,0.034021335493173384,0.008443824415689753,0.0045784706428701714
46.834222985120284,16.82659957801382,0.040504552412050615,0.128896846995421,0.02690325004659901,0.04130719733942943,0.028466097114169468,0.15269925068216977,0.02017403437972452,0.11481315183981129,0.01790336312069352,0.043910568347186665,0.0063069945137595,0.011996543741369534
46.83427055800576,16.826852286389105,0.040504552412050615,0.128896846995421,0.02690325004659901,0.04130719733942943,0.028466097114169468,0.15269925068216977,0.02017403437972452,0.11481315183981129,0.01790336312069352,0.043910568347186665,0.0063069945137595,0.011996543741369534
46.83434057124854,16.82704589606952,0.040504552412050615,0.128896846995421,0.02690325004659901,0.04130719733942943,0.028466097114169468,0.15269925068216977,0.02017403437972452,0.11481315183981129,0.01790336312069352,0.043910568347186665,0.0063069945137595,0.011996543741369534
46.83438675730901,16.82713222294278,0.040504552412050615,0.128896846995421,0.02690325004659901,0.04130719733942943,0.028466097114169468,0.15269925068216977,0.02017403437972452,0.11481315183981129,0.01790336312069352,0.043910568347186665,0.0063069945137595,0.011996543741369534
46.834435571867616,16.827204699866076,0.040504552412050615,0.128896846995421,0.02690325004659901,0.04130719733942943,0.028466097114169468,0.15269925068216977,0.02017403437972452,0.11481315183981129,0.01790336312069352,0.043910568347186665,0.0063069945137595,0.011996543741369534
46.83447213220306,16.827262884311676,0.08054623161421598,0.04011691513679723,0.08610685890197385,0.18501619200297661,0.10911217010737868,0.19297328888013113,0.1237230940334429,0.23377110836056844,0.04733774573592552,0.03953299624545779,0.025464963542228942,0.0009923656157355804
46.834543761397285,16.827373347266754,0.08054623161421598,0.04011691513679723,0.08610685890197385,0.18501619200297661,0.10911217010737868,0.19297328888013113,0.1237230940334429,0.23377110836056844,0.04733774573592552,0.03953299624545779,0.025464963542228942,0.0009923656157355804
46.8346000028438,16.827451476224525,0.08054623161421598,0.04011691513679723,0.08610685890197385,0.18501619200297661,0.10911217010737868,0.19297328888013113,0.1237230940334429,0.23377110836056844,0.04733774573592552,0.03953299624545779,0.025464963542228942,0.0009923656157355804
46.83467853523176,16.827534654145676,0.08054623161421598,0.04011691513679723,0.08610685890197385,0.18501619200297661,0.10911217010737868,0.19297328888013113,0.1237230940334429,0.23377110836056844,0.04733774573592552,0.03953299624545779,0.025464963542228942,0.0009923656157355804
46.83473049087148,16.827659348696546,0.08054623161421598,0.04011691513679723,0.08610685890197385,0.18501619200297661,0.10911217010737868,0.19297328888013113,0.1237230940334429,0.23377110836056844,0.04733774573592552,0.03953299624545779,0.025464963542228942,0.0009923656157355804
46.834730956374,16.82771125166787,0.029917387678534177,0.02002635323444074,0.018637637984296015,0.0292009940255362,0.00995426623731176,0.02634491502280393,0.014972138634283127,0.0398525683329644,0.002066552001511878,0.010228299599651386,0.013107501727445415,0.0009923656157355804
46.834678460187504,16.827767975339267,0.029917387678534177,0.02002635323444074,0.018637637984296015,0.0292009940255362,0.00995426623731176,0.02634491502280393,0.014972138634283127,0.0398525683329644,0.002066552001511878,0.010228299599651386,0.013107501727445415,0.0009923656157355804
46.83460134832314,16.82787835820338,0.029917387678534177,0.02002635323444074,0.018637637984296015,0.0292009940255362,0.00995426623731176,0.02634491502280393,0.014972138634283127,0.0398525683329644,0.002066552001511878,0.010228299599651386,0.013107501727445415,0.0009923656157355804
46.83453808410518,16.82797577644694,0.029917387678534177,0.02002635323444074,0.018637637984296015,0.0292009940255362,0.00995426623731176,0.02634491502280393,0.014972138634283127,0.0398525683329644,0.002066552001511878,0.010228299599651386,0.013107501727445415,0.0009923656157355804
46.83448763340586,16.828050889480146,0.029917387678534177,0.02002635323444074,0.018637637984296015,0.0292009940255362,0.00995426623731176,0.02634491502280393,0.014972138634283127,0.0398525683329644,0.002066552001511878,0.010228299599651386,0.013107501727445415,0.0009923656157355804
46.83444613240986,16.828113370786554,0.029917387678534177,0.02002635323444074,0.018637637984296015,0.0292009940255362,0.00995426623731176,0.02634491502280393,0.014972138634283127,0.0398525683329644,0.002066552001511878,0.010228299599651386,0.013107501727445415,0.0009923656157355804
46.8343757465227,16.82822798388567,0.029917387678534177,0.02002635323444074,0.018637637984296015,0.0292009940255362,0.00995426623731176,0.02634491502280393,0.014972138634283127,0.0398525683329644,0.002066552001511878,0.010228299599651386,0.013107501727445415,0.0009923656157355804
46.83431476580105,16.828325480886818,0.029917387678534177,0.02002635323444074,0.018637637984296015,0.0292009940255362,0.00995426623731176,0.02634491502280393,0.014972138634283127,0.0398525683329644,0.002066552001511878,0.010228299599651386,0.013107501727445415,0.0009923656157355804
46.834251649245246,16.828415540919664,0.029917387678534177,0.02002635323444074,0.018637637984296015,0.0292009940255362,0.00995426623731176,0.02634491502280393,0.014972138634283127,0.0398525683329644,0.002066552001511878,0.010228299599651386,0.013107501727445415,0.0009923656157355804
46.834183240581055,16.82851009588305,0.029917387678534177,0.02002635323444074,0.018637637984296015,0.0292009940255362,0.00995426623731176,0.02634491502280393,0.014972138634283127,0.0398525683329644,0.002066552001511878,0.010228299599651386,0.013107501727445415,0.0009923656157355804
46.834124642571005,16.82860065263936,0.0035969175070344585,0.01152726608474587,0.02726446004804366,0.18861039218363243,0.00906554824514379,0.01940084653988665,0.0034491862163470257,0.006603036735374349,0.001579353281717243,0.0029257532614566295,0.0014637139025434828,0.002819728753584858
46.83411515540157,16.82862911665644,0.0035969175070344585,0.01152726608474587,0.02726446004804366,0.18861039218363243,0.00906554824514379,0.01940084653988665,0.0034491862163470257,0.006603036735374349,0.001579353281717243,0.0029257532614566295,0.0014637139025434828,0.002819728753584858
46.83407942540481,16.82866265661547,0.0035969175070344585,0.01152726608474587,0.02726446004804366,0.18861039218363243,0.00906554824514379,0.01940084653988665,0.0034491862163470257,0.006603036735374349,0.001579353281717243,0.0029257532614566295,0.0014637139025434828,0.002819728753584858
46.83400612750325,16.828766093271955,0.0035969175070344585,0.01152726608474587,0.02726446004804366,0.18861039218363243,0.00906554824514379,0.01940084653988665,0.0034491862163470257,0.006603036735374349,0.001579353281717243,0.0029257532614566295,0.0014637139025434828,0.002819728753584858
46.83396782771691,16.828821104569844,0.0035969175070344585,0.01152726608474587,0.02726446004804366,0.18861039218363243,0.00906554824514379,0.01940084653988665,0.0034491862163470257,0.006603036735374349,0.001579353281717243,0.0029257532614566295,0.0014637139025434828,0.002819728753584858
46.83395975503793,16.82883260211835,0.0031262751140745137,0.005432306603032976,0.014039385408381311,0.019884765892256583,0.008033958448689487,0.014935084001576008,0.00047608512708024255,0.0006430439037090462,0.0005268623257001214,0.0010579562119097555,0.0013814604614655463,0.0013051129636668657
46.83396086294903,16.82883102525951,0.0031262751140745137,0.005432306603032976,0.014039385408381311,0.019884765892256583,0.008033958448689487,0.014935084001576008,0.00047608512708024255,0.0006430439037090462,0.0005268623257001214,0.0010579562119097555,0.0013814604614655463,0.0013051129636668657
46.83396251993691,16.828828666893436,0.0031262751140745137,0.005432306603032976,0.014039385408381311,0.019884765892256583,0.008033958448689487,0.014935084001576008,0.00047608512708024255,0.0006430439037090462,0.0005268623257001214,0.0010579562119097555,0.0013814604614655463,0.0013051129636668657
46.833958357055245,16.828834591834553,0.0031262751140745137,0.005432306603032976,0.014039385408381311,0.019884765892256583,0.008033958448689487,0.014935084001576008,0.00047608512708024255,0.0006430439037090462,0.0005268623257001214,0.0010579562119097555,0.0013814604614655463,0.0013051129636668657
46.83396028873193,16.828831842519826,0.0031262751140745137,0.005432306603032976,0.014039385408381311,0.019884765892256583,0.008033958448689487,0.014935084001576008,0.00047608512708024255,0.0006430439037090462,0.0005268623257001214,0.0010579562119097555,0.0013814604614655463,0.0013051129636668657
46.83396086988128,16.828831015391444,0.0018753488389786032,0.04011691513679723,0.06624582126396998,0.06448866274931776,0.03425608511159907,0.06720479065080551,0.022951643378469094,0.04293249488025781,0.022052153331116424,0.020692024877841438,0.0026006646285473096,0.0009923656157355804
46.83394414602501,16.828854832514136,0.0018753488389786032,0.04011691513679723,0.06624582126396998,0.06448866274931776,0.03425608511159907,0.06720479065080551,0.022951643378469094,0.04293249488025781,0.022052153331116424,0.020692024877841438,0.0026006646285473096,0.0009923656157355804
46.83390070654304,16.82893025042865,0.0018753488389786032,0.04011691513679723,0.06624582126396998,0.06448866274931776,0.03425608511159907,0.06720479065080551,0.022951643378469094,0.04293249488025781,0.022052153331116424,0.020692024877841438,0.0026006646285473096,0.0009923656157355804
46.833845319002414,16.82886925499324,0.0018753488389786032,0.04011691513679723,0.06624582126396998,0.06448866274931776,0.03425608511159907,0.06720479065080551,0.022951643378469094,0.04293249488025781,0.022052153331116424,0.020692024877841438,0.0026006646285473096,0.0009923656157355804
46.833779979312325,16.82878184145235,0.0018753488389786032,0.04011691513679723,0.06624582126396998,0.06448866274931776,0.03425608511159907,0.06720479065080551,0.022951643378469094,0.04293249488025781,0.022052153331116424,0.020692024877841438,0.0026006646285473096,0.0009923656157355804
46.83371998402782,16.828713712372124,0.038653026948208366,0.06910783299203772,0.041767906661923565,0.02593809704186864,0.055643551923165516,0.11591721316609403,0.10574844769313822,0.0939000873769566,0.004029772385516016,0.018834211501862076,0.0023287895069003957,0.002544504563816996
46.833677878411734,16.828668344623875,0.038653026948208366,0.06910783299203772,0.041767906661923565,0.02593809704186864,0.055643551923165516,0.11591721316609403,0.10574844769313822,0.0939000873769566,0.004029772385516016,0.018834211501862076,0.0023287895069003957,0.002544504563816996
46.83363163069775,16.82862206248939,0.038653026948208366,0.06910783299203772,0.041767906661923565,0.02593809704186864,0.055643551923165516,0.11591721316609403,0.10574844769313822,0.0939000873769566,0.004029772385516016,0.018834211501862076,0.0023287895069003957,0.002544504563816996
46.833607482339275,16.828599481715568,0.038653026948208366,0.06910783299203772,0.041767906661923565,0.02593809704186864,0.055643551923165516,0.11591721316609403,0.10574844769313822,0.0939000873769566,0.004029772385516016,0.018834211501862076,0.0023287895069003957,0.002544504563816996
46.83357725633471,16.828572299513095,0.038653026948208366,0.06910783299203772,0.041767906661923565,0.02593809704186864,0.055643551923165516,0.11591721316609403,0.10574844769313822,0.0939000873769566,0.004029772385516016,0.018834211501862076,0.0023287895069003957,0.002544504563816996
46.83354049133093,16.828540777586145,0.038653026948208366,0.06910783299203772,0.041767906661923565,0.02593809704186864,0.055643551923165516,0.11591721316609403,0.10574844769313822,0.0939000873769566,0.004029772385516016,0.018834211501862076,0.0023287895069003957,0.002544504563816996
46.83351605636713,16.82852090629109,0.038653026948208366,0.06910783299203772,0.041767906661923565,0.02593809704186864,0.055643551923165516,0.11591721316609403,0.10574844769313822,0.0939000873769566,0.004029772385516016,0.018834211501862076,0.0023287895069003957,0.002544504563816996
46.83347803040233,16.828492249608246,0.038653026948208366,0.06910783299203772,0.041767906661923565,0.02593809704186864,0.055643551923165516,0.11591721316609403,0.10574844769313822,0.0939000873769566,0.004029772385516016,0.018834211501862076,0.0023287895069003957,0.002544504563816996
46.833439066902535,16.828465786542296,0.038653026948208366,0.06910783299203772,0.041767906661923565,0.02593809704186864,0.055643551923165516,0.11591721316609403,0.10574844769313822,0.0939000873769566,0.004029772385516016,0.018834211501862076,0.0023287895069003957,0.002544504563816996
46.83340467615074,16.828443158663926,0.038653026948208366,0.06910783299203772,0.041767906661923565,0.02593809704186864,0.055643551923165516,0.11591721316609403,0.10574844769313822,0.0939000873769566,0.004029772385516016,0.018834211501862076,0.0023287895069003957,0.002544504563816996
46.83337082566857,16.828419714333055,0.02189657096788801,0.03823254799085712,0.004750494506339873,0.011445462603217861,0.07732781445691231,0.08931974460606104,0.029355271086437953,0.06262797876322505,0.010327908242987077,0.016892431766141656,0.0009185662468264913,0.0009574459474928832
46.83335111941542,16.82840547740083,0.02189657096788801,0.03823254799085712,0.004750494506339873,0.011445462603217861,0.07732781445691231,0.08931974460606104,0.029355271086437953,0.06262797876322505,0.010327908242987077,0.016892431766141656,0.0009185662468264913,0.0009574459474928832
46.833323500204216,16.82838570470057,0.02189657096788801,0.03823254799085712,0.004750494506339873,0.011445462603217861,0.07732781445691231,0.08931974460606104,0.029355271086437953,0.06262797876322505,0.010327908242987077,0.016892431766141656,0.0009185662468264913,0.0009574459474928832
46.83329655743708,16.828367463664712,0.02189657096788801,0.03823254799085712,0.004750494506339873,0.011445462603217861,0.07732781445691231,0.08931974460606104,0.029355271086437953,0.06262797876322505,0.010327908242987077,0.016892431766141656,0.0009185662468264913,0.0009574459474928832
46.833263866072926,16.82834657692116,0.02189657096788801,0.03823254799085712,0.004750494506339873,0.011445462603217861,0.07732781445691231,0.08931974460606104,0.029355271086437953,0.06262797876322505,0.010327908242987077,0.016892431766141656,0.0009185662468264913,0.0009574459474928832
46.83324267174797,16.82833352701919,0.02189657096788801,0.03823254799085712,0.004750494506339873,0.011445462603217861,0.07732781445691231,0.08931974460606104,0.029355271086437953,0.06262797876322505,0.010327908242987077,0.016892431766141656,0.0009185662468264913,0.0009574459474928832
46.83322423578703,16.828321586917486,0.02189657096788801,0.03823254799085712,0.004750494506339873,0.011445462603217861,0.07732781445691231,0.08931974460606104,0.029355271086437953,0.06262797876322505,0.010327908242987077,0.016892431766141656,0.0009185662468264913,0.0009574459474928832
46.83318628152669,16.82829410268761,0.02189657096788801,0.03823254799085712,0.004750494506339873,0.011445462603217861,0.07732781445691231,0.08931974460606104,0.029355271086437953,0.06262797876322505,0.010327908242987077,0.016892431766141656,0.0009185662468264913,0.0009574459474928832
46.833157710467475,16.828271062310435,0.02189657096788801,0.03823254799085712,0.004750494506339873,0.011445462603217861,0.07732781445691231,0.08931974460606104,0.029355271086437953,0.06262797876322505,0.010327908242987077,0.016892431766141656,0.0009185662468264913,0.0009574459474928832
46.83313160984964,16.828249821686537,0.02189657096788801,0.03823254799085712,0.004750494506339873,0.011445462603217861,0.07732781445691231,0.08931974460606104,0.029355271086437953,0.06262797876322505,0.010327908242987077,0.016892431766141656,0.0009185662468264913,0.0009574459474928832
46.83309862332158,16.82822718228845,0.03266768979364126,0.03341343374269696,0.00863280777523851,0.00929131320513248,0.024258459875774425,0.050746019981048246,0.014860830025421767,0.02672194050348376,0.013379365058193936,0.009194430605505448,0.002309139501251306,0.0007913741707268794
46.83307155194595,16.828211698677002,0.03266768979364126,0.03341343374269696,0.00863280777523851,0.00929131320513248,0.024258459875774425,0.050746019981048246,0.014860830025421767,0.02672194050348376,0.013379365058193936,0.009194430605505448,0.002309139501251306,0.0007913741707268794
46.833047208014,16.82819984637875,0.03266768979364126,0.03341343374269696,0.00863280777523851,0.00929131320513248,0.024258459875774425,0.050746019981048246,0.014860830025421767,0.02672194050348376,0.013379365058193936,0.009194430605505448,0.002309139501251306,0.0007913741707268794
46.8330204834859,16.828188288003407,0.03266768979364126,0.03341343374269696,0.00863280777523851,0.00929131320513248,0.024258459875774425,0.050746019981048246,0.014860830025421767,0.02672194050348376,0.013379365058193936,0.009194430605505448,0.002309139501251306,0.0007913741707268794
46.83299395044846,16.828177389684583,0.03266768979364126,0.03341343374269696,0.00863280777523851,0.00929131320513248,0.024258459875774425,0.050746019981048246,0.014860830025421767,0.02672194050348376,0.013379365058193936,0.009194430605505448,0.002309139501251306,0.0007913741707268794
46.83296714039728,16.828166929864686,0.03266768979364126,0.03341343374269696,0.00863280777523851,0.00929131320513248,0.024258459875774425,0.050746019981048246,0.014860830025421767,0.02672194050348376,0.013379365058193936,0.009194430605505448,0.002309139501251306,0.0007913741707268794
46.83294119780035,16.82815731680469,0.03266768979364126,0.03341343374269696,0.00863280777523851,0.00929131320513248,0.024258459875774425,0.050746019981048246,0.014860830025421767,0.02672194050348376,0.013379365058193936,0.009194430605505448,0.002309139501251306,0.0007913741707268794
46.83291516725898,16.828148152431886,0.03266768979364126,0.03341343374269696,0.00863280777523851,0.00929131320513248,0.024258459875774425,0.050746019981048246,0.014860830025421767,0.02672194050348376,0.013379365058193936,0.009194430605505448,0.002309139501251306,0.0007913741707268794
46.83288811705797,16.828139030522227,0.03266768979364126,0.03341343374269696,0.00863280777523851,0.00929131320513248,0.024258459875774425,0.050746019981048246,0.014860830025421767,0.02672194050348376,0.013379365058193936,0.009194430605505448,0.002309139501251306,0.0007913741707268794
46.83286166546801,16.828130461557134,0.03266768979364126,0.03341343374269696,0.00863280777523851,0.00929131320513248,0.024258459875774425,0.050746019981048246,0.014860830025421767,0.02672194050348376,0.013379365058193936,0.009194430605505448,0.002309139501251306,0.0007913741707268794
46.83283449764301,16.828122018869923,0.03266768979364126,0.03341343374269696,0.00863280777523851,0.00929131320513248,0.024258459875774425,0.050746019981048246,0.014860830025421767,0.02672194050348376,0.013379365058193936,0.009194430605505448,0.002309139501251306,0.0007913741707268794
46.832805944139565,16.82811353375187,0.03266768979364126,0.03341343374269696,0.00863280777523851,0.00929131320513248,0.024258459875774425,0.050746019981048246,0.014860830025421767,0.02672194050348376,0.013379365058193936,0.009194430605505448,0.002309139501251306,0.0007913741707268794
46.83277935424716,16.828106028445664,0.03266768979364126,0.03341343374269696,0.00863280777523851,0.00929131320513248,0.024258459875774425,0.050746019981048246,0.014860830025421767,0.02672194050348376,0.013379365058193936,0.009194430605505448,0.002309139501251306,0.0007913741707268794
46.83275124425576,16.82809861990803,0.03266768979364126,0.03341343374269696,0.00863280777523851,0.00929131320513248,0.024258459875774425,0.050746019981048246,0.014860830025421767,0.02672194050348376,0.013379365058193936,0.009194430605505448,0.002309139501251306,0.0007913741707268794
46.832724013726214,16.828091957299154,0.03266768979364126,0.03341343374269696,0.00863280777523851,0.00929131320513248,0.024258459875774425,0.050746019981048246,0.014860830025421767,0.02672194050348376,0.013379365058193936,0.009194430605505448,0.002309139501251306,0.0007913741707268794
46.83269617680933,16.828085663593114,0.03266768979364126,0.03341343374269696,0.00863280777523851,0.00929131320513248,0.024258459875774425,0.050746019981048246,0.014860830025421767,0.02672194050348376,0.013379365058193936,0.009194430605505448,0.002309139501251306,0.0007913741707268794
46.83266988278379,16.82808019387629,0.03266768979364126,0.03341343374269696,0.00863280777523851,0.00929131320513248,0.024258459875774425,0.050746019981048246,0.014860830025421767,0.02672194050348376,0.013379365058193936,0.009194430605505448,0.002309139501251306,0.0007913741707268794
46.83264532015988,16.828075387230005,0.03266768979364126,0.03341343374269696,0.00863280777523851,0.00929131320513248,0.024258459875774425,0.050746019981048246,0.014860830025421767,0.02672194050348376,0.013379365058193936,0.009194430605505448,0.002309139501251306,0.0007913741707268794
46.83261732959694,16.828070091093693,0.03266768979364126,0.03341343374269696,0.00863280777523851,0.00929131320513248,0.024258459875774425,0.050746019981048246,0.014860830025421767,0.02672194050348376,0.013379365058193936,0.009194430605505448,0.002309139501251306,0.0007913741707268794
46.83258922984183,16.828064973701323,0.03266768979364126,0.03341343374269696,0.00863280777523851,0.00929131320513248,0.024258459875774425,0.050746019981048246,0.014860830025421767,0.02672194050348376,0.013379365058193936,0.009194430605505448,0.002309139501251306,0.0007913741707268794
46.83256240391336,16.82806028025517,0.03266768979364126,0.03341343374269696,0.00863280777523851,0.00929131320513248,0.024258459875774425,0.050746019981048246,0.014860830025421767,0.02672194050348376,0.013379365058193936,0.009194430605505448,0.002309139501251306,0.0007913741707268794
46.83253379503782,16.828055482270038,0.03266768979364126,0.03341343374269696,0.00863280777523851,0.00929131320513248,0.024258459875774425,0.050746019981048246,0.014860830025421767,0.02672194050348376,0.013379365058193936,0.009194430605505448,0.002309139501251306,0.0007913741707268794
46.832507514297,16.82805118726311,0.03266768979364126,0.03341343374269696,0.00863280777523851,0.00929131320513248,0.024258459875774425,0.050746019981048246,0.014860830025421767,0.02672194050348376,0.013379365058193936,0.009194430605505448,0.002309139501251306,0.0007913741707268794
46.8324810909033,16.82804695339749,0.03266768979364126,0.03341343374269696,0.00863280777523851,0.00929131320513248,0.024258459875774425,0.050746019981048246,0.014860830025421767,0.02672194050348376,0.013379365058193936,0.009194430605505448,0.002309139501251306,0.0007913741707268794
46.832452246959875,16.82804243501689,0.03266768979364126,0.03341343374269696,0.00863280777523851,0.00929131320513248,0.024258459875774425,0.050746019981048246,0.014860830025421767,0.02672194050348376,0.013379365058193936,0.009194430605505448,0.002309139501251306,0.0007913741707268794
46.832436587597826,16.82804000132232,0.03266768979364126,0.03341343374269696,0.00863280777523851,0.00929131320513248,0.024258459875774425,0.050746019981048246,0.014860830025421767,0.02672194050348376,0.013379365058193936,0.009194430605505448,0.002309139501251306,0.0007913741707268794
46.8323926552636,16.828033967890068,0.03266768979364126,0.03341343374269696,0.00863280777523851,0.00929131320513248,0.024258459875774425,0.050746019981048246,0.014860830025421767,0.02672194050348376,0.013379365058193936,0.009194430605505448,0.002309139501251306,0.0007913741707268794
46.83236655978451,16.828031308578353,0.03266768979364126,0.03341343374269696,0.00863280777523851,0.00929131320513248,0.024258459875774425,0.050746019981048246,0.014860830025421767,0.02672194050348376,0.013379365058193936,0.009194430605505448,0.002309139501251306,0.0007913741707268794
46.832338291548325,16.828029315808394,0.03266768979364126,0.03341343374269696,0.00863280777523851,0.00929131320513248,0.024258459875774425,0.050746019981048246,0.014860830025421767,0.02672194050348376,0.013379365058193936,0.009194430605505448,0.002309139501251306,0.0007913741707268794
46.83230813283775,16.82802801331404,0.03266768979364126,0.03341343374269696,0.00863280777523851,0.00929131320513248,0.024258459875774425,0.050746019981048246,0.014860830025421767,0.02672194050348376,0.013379365058193936,0.009194430605505448,0.002309139501251306,0.0007913741707268794
46.83229087200584,16.82802668703241,0.03266768979364126,0.03341343374269696,0.00863280777523851,0.00929131320513248,0.024258459875774425,0.050746019981048246,0.014860830025421767,0.02672194050348376,0.013379365058193936,0.009194430605505448,0.002309139501251306,0.0007913741707268794
46.832248491201696,16.82801938635629,0.03266768979364126,0.03341343374269696,0.00863280777523851,0.00929131320513248,0.024258459875774425,0.050746019981048246,0.014860830025421767,0.02672194050348376,0.013379365058193936,0.009194430605505448,0.002309139501251306,0.0007913741707268794
46.832221445597376,16.82801185349291,0.03266768979364126,0.03341343374269696,0.00863280777523851,0.00929131320513248,0.024258459875774425,0.050746019981048246,0.014860830025421767,0.02672194050348376,0.013379365058193936,0.009194430605505448,0.002309139501251306,0.0007913741707268794
46.8321877538839,16.82800255372223,0.03266768979364126,0.03341343374269696,0.00863280777523851,0.00929131320513248,0.024258459875774425,0.050746019981048246,0.014860830025421767,0.02672194050348376,0.013379365058193936,0.009194430605505448,0.002309139501251306,0.0007913741707268794
46.83216357342527,16.82799773917557,0.03266768979364126,0.03341343374269696,0.00863280777523851,0.00929131320513248,0.024258459875774425,0.050746019981048246,0.014860830025421767,0.02672194050348376,0.013379365058193936,0.009194430605505448,0.002309139501251306,0.0007913741707268794
46.83214264178386,16.82799484331367,0.03266768979364126,0.03341343374269696,0.00863280777523851,0.00929131320513248,0.024258459875774425,0.050746019981048246,0.014860830025421767,0.02672194050348376,0.013379365058193936,0.009194430605505448,0.002309139501251306,0.0007913741707268794
46.832094130213704,16.82799105543955,0.03266768979364126,0.03341343374269696,0.00863280777523851,0.00929131320513248,0.024258459875774425,0.050746019981048246,0.014860830025421767,0.02672194050348376,0.013379365058193936,0.009194430605505448,0.002309139501251306,0.0007913741707268794
46.83205095053211,16.827987765661828,0.03266768979364126,0.03341343374269696,0.00863280777523851,0.00929131320513248,0.024258459875774425,0.050746019981048246,0.014860830025421767,0.02672194050348376,0.013379365058193936,0.009194430605505448,0.002309139501251306,0.0007913741707268794
46.832011125248286,16.82798485216616,0.03266768979364126,0.03341343374269696,0.00863280777523851,0.00929131320513248,0.024258459875774425,0.050746019981048246,0.014860830025421767,0.02672194050348376,0.013379365058193936,0.009194430605505448,0.002309139501251306,0.0007913741707268794
46.83197612984993,16.82798246168201,0.03266768979364126,0.03341343374269696,0.00863280777523851,0.00929131320513248,0.024258459875774425,0.050746019981048246,0.014860830025421767,0.02672194050348376,0.013379365058193936,0.009194430605505448,0.002309139501251306,0.0007913741707268794
46.8319058558356,16.827977847311438,0.008081565664674757,0.018041641767235064,0.04199848177106234,0.011515653671212085,0.009211236302004095,0.015917606223894865,0.013356702355209653,0.023102792657220605,0.0033564347625949214,0.00730497876476867,0.0013325995668026713,0.0006271198486773504
46.831846119619364,16.827973962050546,0.008081565664674757,0.018041641767235064,0.04199848177106234,0.011515653671212085,0.009211236302004095,0.015917606223894865,0.013356702355209653,0.023102792657220605,0.0033564347625949214,0.00730497876476867,0.0013325995668026713,0.0006271198486773504
46.83179720871736,16.827970780871546,0.008081565664674757,0.018041641767235064,0.04199848177106234,0.011515653671212085,0.009211236302004095,0.015917606223894865,0.013356702355209653,0.023102792657220605,0.0033564347625949214,0.00730497876476867,0.0013325995668026713,0.0006271198486773504
46.83173720573248,16.827966878256966,0.008081565664674757,0.018041641767235064,0.04199848177106234,0.011515653671212085,0.009211236302004095,0.015917606223894865,0.013356702355209653,0.023102792657220605,0.0033564347625949214,0.00730497876476867,0.0013325995668026713,0.0006271198486773504
46.83169336507354,16.827964026848107,0.008081565664674757,0.018041641767235064,0.04199848177106234,0.011515653671212085,0.009211236302004095,0.015917606223894865,0.013356702355209653,0.023102792657220605,0.0033564347625949214,0.00730497876476867,0.0013325995668026713,0.0006271198486773504
46.83164622249258,16.827960922565257,0.008081565664674757,0.018041641767235064,0.04199848177106234,0.011515653671212085,0.009211236302004095,0.015917606223894865,0.013356702355209653,0.023102792657220605,0.0033564347625949214,0.00730497876476867,0.0013325995668026713,0.0006271198486773504
46.83161528363864,16.827958812976142,0.008081565664674757,0.018041641767235064,0.04199848177106234,0.011515653671212085,0.009211236302004095,0.015917606223894865,0.013356702355209653,0.023102792657220605,0.0033564347625949214,0.00730497876476867,0.0013325995668026713,0.0006271198486773504
46.83158515170141,16.827956709855606,0.008081565664674757,0.018041641767235064,0.04199848177106234,0.011515653671212085,0.009211236302004095,0.015917606223894865,0.013356702355209653,0.023102792657220605,0.0033564347625949214,0.00730497876476867,0.0013325995668026713,0.0006271198486773504
46.83155427002255,16.827954526454562,0.008081565664674757,0.018041641767235064,0.04199848177106234,0.011515653671212085,0.009211236302004095,0.015917606223894865,0.013356702355209653,0.023102792657220605,0.0033564347625949214,0.00730497876476867,0.0013325995668026713,0.0006271198486773504
46.831514216950715,16.827951660118995,0.008081565664674757,0.018041641767235064,0.04199848177106234,0.011515653671212085,0.009211236302004095,0.015917606223894865,0.013356702355209653,0.023102792657220605,0.0033564347625949214,0.00730497876476867,0.0013325995668026713,0.0006271198486773504
46.83149045340227,16.827949954117447,0.008081565664674757,0.018041641767235064,0.04199848177106234,0.011515653671212085,0.009211236302004095,0.015917606223894865,0.013356702355209653,0.023102792657220605,0.0033564347625949214,0.00730497876476867,0.0013325995668026713,0.0006271198486773504
46.83145477785536,16.82794744334914,0.008081565664674757,0.018041641767235064,0.04199848177106234,0.011515653671212085,0.009211236302004095,0.015917606223894865,0.013356702355209653,0.023102792657220605,0.0033564347625949214,0.00730497876476867,0.0013325995668026713,0.0006271198486773504
46.831425221968,16.82794540315659,0.008081565664674757,0.018041641767235064,0.04199848177106234,0.011515653671212085,0.009211236302004095,0.015917606223894865,0.013356702355209653,0.023102792657220605,0.0033564347625949214,0.00730497876476867,0.0013325995668026713,0.0006271198486773504
46.83137737889931,16.827942201424932,0.008081565664674757,0.018041641767235064,0.04199848177106234,0.011515653671212085,0.009211236302004095,0.015917606223894865,0.013356702355209653,0.023102792657220605,0.0033564347625949214,0.00730497876476867,0.0013325995668026713,0.0006271198486773504
46.83134384966135,16.827940046761903,0.008081565664674757,0.018041641767235064,0.04199848177106234,0.011515653671212085,0.009211236302004095,0.015917606223894865,0.013356702355209653,0.023102792657220605,0.0033564347625949214,0.00730497876476867,0.0013325995668026713,0.0006271198486773504
46.83131580453531,16.827938295875583,0.013006358713271597,0.021705715044745614,0.009266456818887991,0.005073491637404312,0.01397833569141116,0.028040097626851893,0.014539182242154346,0.014473696774427088,0.0024661321469478434,0.005558237135659218,0.00017051033517141134,0.0004262119559936853
46.831277161744175,16.827935892334697,0.013006358713271597,0.021705715044745614,0.009266456818887991,0.005073491637404312,0.01397833569141116,0.028040097626851893,0.014539182242154346,0.014473696774427088,0.0024661321469478434,0.005558237135659218,0.00017051033517141134,0.0004262119559936853
46.83124823195622,16.82793409292666,0.013006358713271597,0.021705715044745614,0.009266456818887991,0.005073491637404312,0.01397833569141116,0.028040097626851893,0.014539182242154346,0.014473696774427088,0.0024661321469478434,0.005558237135659218,0.00017051033517141134,0.0004262119559936853
46.83121977491085,16.827932322918624,0.013006358713271597,0.021705715044745614,0.009266456818887991,0.005073491637404312,0.01397833569141116,0.028040097626851893,0.014539182242154346,0.014473696774427088,0.0024661321469478434,0.005558237135659218,0.00017051033517141134,0.0004262119559936853
46.83119161828907,16.82793057159328,0.013006358713271597,0.021705715044745614,0.009266456818887991,0.005073491637404312,0.01397833569141116,0.028040097626851893,0.014539182242154346,0.014473696774427088,0.0024661321469478434,0.005558237135659218,0.00017051033517141134,0.0004262119559936853
46.831164123628795,16.827928861438572,0.013006358713271597,0.021705715044745614,0.009266456818887991,0.005073491637404312,0.01397833569141116,0.028040097626851893,0.014539182242154346,0.014473696774427088,0.0024661321469478434,0.005558237135659218,0.00017051033517141134,0.0004262119559936853
46.8311388470429,16.827927289244666,0.013006358713271597,0.021705715044745614,0.009266456818887991,0.005073491637404312,0.01397833569141116,0.028040097626851893,0.014539182242154346,0.014473696774427088,0.0024661321469478434,0.005558237135659218,0.00017051033517141134,0.0004262119559936853
46.831114543491324,16.827925711255503,0.013006358713271597,0.021705715044745614,0.009266456818887991,0.005073491637404312,0.01397833569141116,0.028040097626851893,0.014539182242154346,0.014473696774427088,0.0024661321469478434,0.005558237135659218,0.00017051033517141134,0.0004262119559936853
46.83108902127402,16.827923869799786,0.013006358713271597,0.021705715044745614,0.009266456818887991,0.005073491637404312,0.01397833569141116,0.028040097626851893,0.014539182242154346,0.014473696774427088,0.0024661321469478434,0.005558237135659218,0.00017051033517141134,0.0004262119559936853
46.83106111910071,16.827921645621423,0.013006358713271597,0.021705715044745614,0.009266456818887991,0.005073491637404312,0.01397833569141116,0.028040097626851893,0.014539182242154346,0.014473696774427088,0.0024661321469478434,0.005558237135659218,0.00017051033517141134,0.0004262119559936853
46.83103527366922,16.827919400686255,0.013006358713271597,0.021705715044745614,0.009266456818887991,0.005073491637404312,0.01397833569141116,0.028040097626851893,0.014539182242154346,0.014473696774427088,0.0024661321469478434,0.005558237135659218,0.00017051033517141134,0.0004262119559936853
46.831008619896956,16.827917463101567,0.013006358713271597,0.021705715044745614,0.009266456818887991,0.005073491637404312,0.01397833569141116,0.028040097626851893,0.014539182242154346,0.014473696774427088,0.0024661321469478434,0.005558237135659218,0.00017051033517141134,0.0004262119559936853
46.83098140874444,16.82791813735577,0.013006358713271597,0.021705715044745614,0.009266456818887991,0.005073491637404312,0.01397833569141116,0.028040097626851893,0.014539182242154346,0.014473696774427088,0.0024661321469478434,0.005558237135659218,0.00017051033517141134,0.0004262119559936853
46.830954869479356,16.82792145131985,0.013006358713271597,0.021705715044745614,0.009266456818887991,0.005073491637404312,0.01397833569141116,0.028040097626851893,0.014539182242154346,0.014473696774427088,0.0024661321469478434,0.005558237135659218,0.00017051033517141134,0.0004262119559936853
46.83092874027864,16.827927131753107,0.013006358713271597,0.021705715044745614,0.009266456818887991,0.005073491637404312,0.01397833569141116,0.028040097626851893,0.014539182242154346,0.014473696774427088,0.0024661321469478434,0.005558237135659218,0.00017051033517141134,0.0004262119559936853
46.830901641460336,16.827935391575757,0.013006358713271597,0.021705715044745614,0.009266456818887991,0.005073491637404312,0.01397833569141116,0.028040097626851893,0.014539182242154346,0.014473696774427088,0.0024661321469478434,0.005558237135659218,0.00017051033517141134,0.0004262119559936853
46.83087403422159,16.82794334146569,0.013006358713271597,0.021705715044745614,0.009266456818887991,0.005073491637404312,0.01397833569141116,0.028040097626851893,0.014539182242154346,0.014473696774427088,0.0024661321469478434,0.005558237135659218,0.00017051033517141134,0.0004262119559936853
46.83084664801269,16.82794885944305,0.013006358713271597,0.021705715044745614,0.009266456818887991,0.005073491637404312,0.01397833569141116,0.028040097626851893,0.014539182242154346,0.014473696774427088,0.0024661321469478434,0.005558237135659218,0.00017051033517141134,0.0004262119559936853
46.83081954344957,16.82795194455695,0.013006358713271597,0.021705715044745614,0.009266456818887991,0.005073491637404312,0.01397833569141116,0.028040097626851893,0.014539182242154346,0.014473696774427088,0.0024661321469478434,0.005558237135659218,0.00017051033517141134,0.0004262119559936853
46.83079208384675,16.82795260336542,0.013006358713271597,0.021705715044745614,0.009266456818887991,0.005073491637404312,0.01397833569141116,0.028040097626851893,0.014539182242154346,0.014473696774427088,0.0024661321469478434,0.005558237135659218,0.00017051033517141134,0.0004262119559936853
