lat,lon,std_acc_x,median_acc_x,std_acc_y,median_acc_y,std_acc_z,median_acc_z,std_gyr_x,median_gyr_x,std_gyr_y,median_gyr_y,std_gyr_z,median_gyr_z
46.83444965752899,16.829851658548503,0.020208377697745635,0.05055431994307641,0.0316707852285731,0.05621149297555121,0.05244881087895449,0.12078642991987142,0.08834447618467135,0.11825784551217036,0.031982481602480045,0.052837558970475526,0.0034076541874403198,0.0028754172987681646
46.834476282875265,16.829888262470938,0.020208377697745635,0.05055431994307641,0.0316707852285731,0.05621149297555121,0.05244881087895449,0.12078642991987142,0.08834447618467135,0.11825784551217036,0.031982481602480045,0.052837558970475526,0.0034076541874403198,0.0028754172987681646
46.83450768029097,16.829928267189405,0.020208377697745635,0.05055431994307641,0.0316707852285731,0.05621149297555121,0.05244881087895449,0.12078642991987142,0.08834447618467135,0.11825784551217036,0.031982481602480045,0.052837558970475526,0.0034076541874403198,0.0028754172987681646
46.83452936803846,16.829954102843605,0.020208377697745635,0.05055431994307641,0.0316707852285731,0.05621149297555121,0.05244881087895449,0.12078642991987142,0.08834447618467135,0.11825784551217036,0.031982481602480045,0.052837558970475526,0.0034076541874403198,0.0028754172987681646
46.83456579388387,16.82999557237165,0.020208377697745635,0.05055431994307641,0.0316707852285731,0.05621149297555121,0.05244881087895449,0.12078642991987142,0.08834447618467135,0.11825784551217036,0.031982481602480045,0.052837558970475526,0.0034076541874403198,0.0028754172987681646
46.834580393305565,16.83001294959629,0.03864088790410849,0.11212369210054776,0.03359101115574054,0.0751851690130056,0.10027012960833746,0.20671983098001717,0.08704844278252624,0.29423942464912156,0.03512042888070753,0.11757422138573578,0.0012954123858494233,0.002489651387867644
46.834630769135146,16.830081983701696,0.03864088790410849,0.11212369210054776,0.03359101115574054,0.0751851690130056,0.10027012960833746,0.20671983098001717,0.08704844278252624,0.29423942464912156,0.03512042888070753,0.11757422138573578,0.0012954123858494233,0.002489651387867644
46.834664610742315,16.83013316107838,0.03864088790410849,0.11212369210054776,0.03359101115574054,0.0751851690130056,0.10027012960833746,0.20671983098001717,0.08704844278252624,0.29423942464912156,0.03512042888070753,0.11757422138573578,0.0012954123858494233,0.002489651387867644
46.834703664053336,16.83019036524549,0.03864088790410849,0.11212369210054776,0.03359101115574054,0.0751851690130056,0.10027012960833746,0.20671983098001717,0.08704844278252624,0.29423942464912156,0.03512042888070753,0.11757422138573578,0.0012954123858494233,0.002489651387867644
46.83473785860372,16.83023882030252,0.03864088790410849,0.11212369210054776,0.03359101115574054,0.0751851690130056,0.10027012960833746,0.20671983098001717,0.08704844278252624,0.29423942464912156,0.03512042888070753,0.11757422138573578,0.0012954123858494233,0.002489651387867644
46.83475807556222,16.83026719225869,0.05152883666740499,0.08372221492063069,0.0179744397442662,0.06551081072020426,0.19120861161757938,0.16212153827845463,0.4240930145854667,1.0045698709538633,0.043293240980478064,0.16620753174231018,0.0007683657863132195,0.0029075991102182432
46.83480517916962,16.830332940913507,0.05152883666740499,0.08372221492063069,0.0179744397442662,0.06551081072020426,0.19120861161757938,0.16212153827845463,0.4240930145854667,1.0045698709538633,0.043293240980478064,0.16620753174231018,0.0007683657863132195,0.0029075991102182432
46.83483242141549,16.83037050269556,0.05152883666740499,0.08372221492063069,0.0179744397442662,0.06551081072020426,0.19120861161757938,0.16212153827845463,0.4240930145854667,1.0045698709538633,0.043293240980478064,0.16620753174231018,0.0007683657863132195,0.0029075991102182432
46.83485811278617,16.83040544859048,0.05152883666740499,0.08372221492063069,0.0179744397442662,0.06551081072020426,0.19120861161757938,0.16212153827845463,0.4240930145854667,1.0045698709538633,0.043293240980478064,0.16620753174231018,0.0007683657863132195,0.0029075991102182432
46.8349027596,16.83046502845023,0.05152883666740499,0.08372221492063069,0.0179744397442662,0.06551081072020426,0.19120861161757938,0.16212153827845463,0.4240930145854667,1.0045698709538633,0.043293240980478064,0.16620753174231018,0.0007683657863132195,0.0029075991102182432
46.83493206538003,16.83050318600424,0.004009822091856191,0.006838969710955652,0.02258193242442118,0.018022231002983703,0.01193521430343356,0.022933944247117463,0.02905961044950465,0.04458438382103728,0.009319217979743456,0.015511334605949027,0.0006985376040238743,0.0004418690838377765
46.834956108608516,16.83053396013872,0.004009822091856191,0.006838969710955652,0.02258193242442118,0.018022231002983703,0.01193521430343356,0.022933944247117463,0.02905961044950465,0.04458438382103728,0.009319217979743456,0.015511334605949027,0.0006985376040238743,0.0004418690838377765
46.834984455303385,16.830569652982796,0.004009822091856191,0.006838969710955652,0.02258193242442118,0.018022231002983703,0.01193521430343356,0.022933944247117463,0.02905961044950465,0.04458438382103728,0.009319217979743456,0.015511334605949027,0.0006985376040238743,0.0004418690838377765
46.83501185372328,16.830603402939428,0.004009822091856191,0.006838969710955652,0.02258193242442118,0.018022231002983703,0.01193521430343356,0.022933944247117463,0.02905961044950465,0.04458438382103728,0.009319217979743456,0.015511334605949027,0.0006985376040238743,0.0004418690838377765
46.83504142899558,16.830639111478266,0.004009822091856191,0.006838969710955652,0.02258193242442118,0.018022231002983703,0.01193521430343356,0.022933944247117463,0.02905961044950465,0.04458438382103728,0.009319217979743456,0.015511334605949027,0.0006985376040238743,0.0004418690838377765
46.83506956420646,16.83067241238058,0.004009822091856191,0.006838969710955652,0.02258193242442118,0.018022231002983703,0.01193521430343356,0.022933944247117463,0.02905961044950465,0.04458438382103728,0.009319217979743456,0.015511334605949027,0.0006985376040238743,0.0004418690838377765
46.8351133187052,16.830723079277615,0.004009822091856191,0.006838969710955652,0.02258193242442118,0.018022231002983703,0.01193521430343356,0.022933944247117463,0.02905961044950465,0.04458438382103728,0.009319217979743456,0.015511334605949027,0.0006985376040238743,0.0004418690838377765
46.83512539403616,16.830736818509482,0.004009822091856191,0.006838969710955652,0.02258193242442118,0.018022231002983703,0.01193521430343356,0.022933944247117463,0.02905961044950465,0.04458438382103728,0.009319217979743456,0.015511334605949027,0.0006985376040238743,0.0004418690838377765
46.83515519449046,16.830770566341688,0.004009822091856191,0.006838969710955652,0.02258193242442118,0.018022231002983703,0.01193521430343356,0.022933944247117463,0.02905961044950465,0.04458438382103728,0.009319217979743456,0.015511334605949027,0.0006985376040238743,0.0004418690838377765
46.83518205102483,16.830800601589587,0.004009822091856191,0.006838969710955652,0.02258193242442118,0.018022231002983703,0.01193521430343356,0.022933944247117463,0.02905961044950465,0.04458438382103728,0.009319217979743456,0.015511334605949027,0.0006985376040238743,0.0004418690838377765
46.83520796780057,16.83082916018764,0.004009822091856191,0.006838969710955652,0.02258193242442118,0.018022231002983703,0.01193521430343356,0.022933944247117463,0.02905961044950465,0.04458438382103728,0.009319217979743456,0.015511334605949027,0.0006985376040238743,0.0004418690838377765
46.83523351063823,16.830856933819327,0.004009822091856191,0.006838969710955652,0.02258193242442118,0.018022231002983703,0.01193521430343356,0.022933944247117463,0.02905961044950465,0.04458438382103728,0.009319217979743456,0.015511334605949027,0.0006985376040238743,0.0004418690838377765
46.83525079032654,16.830875529142762,0.004009822091856191,0.006838969710955652,0.02258193242442118,0.018022231002983703,0.01193521430343356,0.022933944247117463,0.02905961044950465,0.04458438382103728,0.009319217979743456,0.015511334605949027,0.0006985376040238743,0.0004418690838377765
46.83528516301584,16.830911944036025,0.004009822091856191,0.006838969710955652,0.02258193242442118,0.018022231002983703,0.01193521430343356,0.022933944247117463,0.02905961044950465,0.04458438382103728,0.009319217979743456,0.015511334605949027,0.0006985376040238743,0.0004418690838377765
46.83531119873292,16.830939129488005,0.004009822091856191,0.006838969710955652,0.02258193242442118,0.018022231002983703,0.01193521430343356,0.022933944247117463,0.02905961044950465,0.04458438382103728,0.009319217979743456,0.015511334605949027,0.0006985376040238743,0.0004418690838377765
46.83533956788169,16.830968428397547,0.023523134689635704,0.01673573295700262,0.012251218904816352,0.03474173096466498,0.032804731268784464,0.052299298631927366,0.11135935576207441,0.20269216741326976,0.029859625662923887,0.04147257643404621,0.0014254877928996446,0.0010680584904778484
46.83536452997039,16.8309939353037,0.023523134689635704,0.01673573295700262,0.012251218904816352,0.03474173096466498,0.032804731268784464,0.052299298631927366,0.11135935576207441,0.20269216741326976,0.029859625662923887,0.04147257643404621,0.0014254877928996446,0.0010680584904778484
46.835416366484075,16.831046751785415,0.023523134689635704,0.01673573295700262,0.012251218904816352,0.03474173096466498,0.032804731268784464,0.052299298631927366,0.11135935576207441,0.20269216741326976,0.029859625662923887,0.04147257643404621,0.0014254877928996446,0.0010680584904778484
46.83543742482149,16.831068486402163,0.023523134689635704,0.01673573295700262,0.012251218904816352,0.03474173096466498,0.032804731268784464,0.052299298631927366,0.11135935576207441,0.20269216741326976,0.029859625662923887,0.04147257643404621,0.0014254877928996446,0.0010680584904778484
46.83546129314672,16.831093253471177,0.023523134689635704,0.01673573295700262,0.012251218904816352,0.03474173096466498,0.032804731268784464,0.052299298631927366,0.11135935576207441,0.20269216741326976,0.029859625662923887,0.04147257643404621,0.0014254877928996446,0.0010680584904778484
46.83547222976752,16.831104786925597,0.03844039883223999,0.0683812166508547,0.025888777267647416,0.07163483994847157,0.0737713541572463,0.1363875545093638,0.10850548448760954,0.28701735377237003,0.030490530668265365,0.10177835183588733,0.0016456331420437902,0.004151579600443597
46.835520502308334,16.83115354749991,0.03844039883223999,0.0683812166508547,0.025888777267647416,0.07163483994847157,0.0737713541572463,0.1363875545093638,0.10850548448760954,0.28701735377237003,0.030490530668265365,0.10177835183588733,0.0016456331420437902,0.004151579600443597
46.83554714231756,16.83117943613031,0.03844039883223999,0.0683812166508547,0.025888777267647416,0.07163483994847157,0.0737713541572463,0.1363875545093638,0.10850548448760954,0.28701735377237003,0.030490530668265365,0.10177835183588733,0.0016456331420437902,0.004151579600443597
46.835576351854975,16.831206979642026,0.03844039883223999,0.0683812166508547,0.025888777267647416,0.07163483994847157,0.0737713541572463,0.1363875545093638,0.10850548448760954,0.28701735377237003,0.030490530668265365,0.10177835183588733,0.0016456331420437902,0.004151579600443597
46.835601351026085,16.83123060314977,0.03844039883223999,0.0683812166508547,0.025888777267647416,0.07163483994847157,0.0737713541572463,0.1363875545093638,0.10850548448760954,0.28701735377237003,0.030490530668265365,0.10177835183588733,0.0016456331420437902,0.004151579600443597
46.83562826283442,16.831256880212532,0.006989362101203735,0.026568748059487897,0.01956284656493385,0.04630554778535651,0.055636635802556574,0.0636316011126788,0.08066775011176548,0.22301600128028878,0.03391119154682197,0.06010589103233983,0.0014493019007468578,0.0020965647368884587
46.8356538763437,16.831282750438778,0.006989362101203735,0.026568748059487897,0.01956284656493385,0.04630554778535651,0.055636635802556574,0.0636316011126788,0.08066775011176548,0.22301600128028878,0.03391119154682197,0.06010589103233983,0.0014493019007468578,0.0020965647368884587
46.83568233519662,16.831312538295972,0.006989362101203735,0.026568748059487897,0.01956284656493385,0.04630554778535651,0.055636635802556574,0.0636316011126788,0.08066775011176548,0.22301600128028878,0.03391119154682197,0.06010589103233983,0.0014493019007468578,0.0020965647368884587
46.835710540323824,16.83134393909125,0.006989362101203735,0.026568748059487897,0.01956284656493385,0.04630554778535651,0.055636635802556574,0.0636316011126788,0.08066775011176548,0.22301600128028878,0.03391119154682197,0.06010589103233983,0.0014493019007468578,0.0020965647368884587
46.83574579651509,16.83138696917606,0.006989362101203735,0.026568748059487897,0.01956284656493385,0.04630554778535651,0.055636635802556574,0.0636316011126788,0.08066775011176548,0.22301600128028878,0.03391119154682197,0.06010589103233983,0.0014493019007468578,0.0020965647368884587
46.8357786515503,16.831431509442226,0.04175208452365605,0.0647001163522179,0.03132140571917728,0.0406875638816862,0.07628237106090102,0.09619831934660442,0.03717563476662878,0.10352595049380857,0.03468552822696084,0.07309398559691391,0.000603530531715695,0.0013788731502248801
46.835802611811594,16.831463913418673,0.04175208452365605,0.0647001163522179,0.03132140571917728,0.0406875638816862,0.07628237106090102,0.09619831934660442,0.03717563476662878,0.10352595049380857,0.03468552822696084,0.07309398559691391,0.000603530531715695,0.0013788731502248801
46.835830214658344,16.831497108075055,0.04175208452365605,0.0647001163522179,0.03132140571917728,0.0406875638816862,0.07628237106090102,0.09619831934660442,0.03717563476662878,0.10352595049380857,0.03468552822696084,0.07309398559691391,0.000603530531715695,0.0013788731502248801
46.83586920104744,16.83153756869356,0.04175208452365605,0.0647001163522179,0.03132140571917728,0.0406875638816862,0.07628237106090102,0.09619831934660442,0.03717563476662878,0.10352595049380857,0.03468552822696084,0.07309398559691391,0.000603530531715695,0.0013788731502248801
46.83589704438965,16.831564089297924,0.04175208452365605,0.0647001163522179,0.03132140571917728,0.0406875638816862,0.07628237106090102,0.09619831934660442,0.03717563476662878,0.10352595049380857,0.03468552822696084,0.07309398559691391,0.000603530531715695,0.0013788731502248801
46.83592762725565,16.831595932133403,0.006706168689385784,0.030235484435190925,0.059028972551593874,0.06887030562642524,0.18133637752802415,0.11375863627426479,0.37916548375830605,0.5352699686257995,0.03320679720384869,0.11021930933262614,0.0005774007672964633,0.0022218451427628524
46.83596014732285,16.831633270111798,0.006706168689385784,0.030235484435190925,0.059028972551593874,0.06887030562642524,0.18133637752802415,0.11375863627426479,0.37916548375830605,0.5352699686257995,0.03320679720384869,0.11021930933262614,0.0005774007672964633,0.0022218451427628524
46.83600210202292,16.831686233741998,0.006706168689385784,0.030235484435190925,0.059028972551593874,0.06887030562642524,0.18133637752802415,0.11375863627426479,0.37916548375830605,0.5352699686257995,0.03320679720384869,0.11021930933262614,0.0005774007672964633,0.0022218451427628524
46.836028181371994,16.831721182326838,0.006706168689385784,0.030235484435190925,0.059028972551593874,0.06887030562642524,0.18133637752802415,0.11375863627426479,0.37916548375830605,0.5352699686257995,0.03320679720384869,0.11021930933262614,0.0005774007672964633,0.0022218451427628524
46.83608288416237,16.831799417997225,0.006706168689385784,0.030235484435190925,0.059028972551593874,0.06887030562642524,0.18133637752802415,0.11375863627426479,0.37916548375830605,0.5352699686257995,0.03320679720384869,0.11021930933262614,0.0005774007672964633,0.0022218451427628524
46.836124032945754,16.831862478250137,0.01872116283612896,0.03585974035357697,0.05204446618947181,0.06146795969271723,0.06779174368151991,0.06365550397882365,0.09007062413125987,0.20367614269276882,0.03884003169493947,0.10168850218793371,0.0006903556088409091,0.0007488067472977964
46.83616934807393,16.831934973836827,0.01872116283612896,0.03585974035357697,0.05204446618947181,0.06146795969271723,0.06779174368151991,0.06365550397882365,0.09007062413125987,0.20367614269276882,0.03884003169493947,0.10168850218793371,0.0006903556088409091,0.0007488067472977964
46.836184411493726,16.831959715300126,0.01872116283612896,0.03585974035357697,0.05204446618947181,0.06146795969271723,0.06779174368151991,0.06365550397882365,0.09007062413125987,0.20367614269276882,0.03884003169493947,0.10168850218793371,0.0006903556088409091,0.0007488067472977964
46.8362246162652,16.832026885025137,0.01872116283612896,0.03585974035357697,0.05204446618947181,0.06146795969271723,0.06779174368151991,0.06365550397882365,0.09007062413125987,0.20367614269276882,0.03884003169493947,0.10168850218793371,0.0006903556088409091,0.0007488067472977964
46.83626675858401,16.83209928576732,0.01872116283612896,0.03585974035357697,0.05204446618947181,0.06146795969271723,0.06779174368151991,0.06365550397882365,0.09007062413125987,0.20367614269276882,0.03884003169493947,0.10168850218793371,0.0006903556088409091,0.0007488067472977964
46.836308046512606,16.83217476477172,0.05069297377101825,0.10421731717609896,0.11373642134217746,0.3128509813790338,0.18038692088145908,0.3092787109831342,0.29695270050596284,0.43939115564744385,0.07047146160206623,0.2419413149995768,0.005102495290306538,0.005077742318823863
46.83637289570544,16.83232401010425,0.05069297377101825,0.10421731717609896,0.11373642134217746,0.3128509813790338,0.18038692088145908,0.3092787109831342,0.29695270050596284,0.43939115564744385,0.07047146160206623,0.2419413149995768,0.005102495290306538,0.005077742318823863
46.83642833609535,16.832413319848804,0.05069297377101825,0.10421731717609896,0.11373642134217746,0.3128509813790338,0.18038692088145908,0.3092787109831342,0.29695270050596284,0.43939115564744385,0.07047146160206623,0.2419413149995768,0.005102495290306538,0.005077742318823863
46.836493351014596,16.832533510863428,0.05069297377101825,0.10421731717609896,0.11373642134217746,0.3128509813790338,0.18038692088145908,0.3092787109831342,0.29695270050596284,0.43939115564744385,0.07047146160206623,0.2419413149995768,0.005102495290306538,0.005077742318823863
46.83657655703452,16.832709416163922,0.05069297377101825,0.10421731717609896,0.11373642134217746,0.3128509813790338,0.18038692088145908,0.3092787109831342,0.29695270050596284,0.43939115564744385,0.07047146160206623,0.2419413149995768,0.005102495290306538,0.005077742318823863
46.836621415342115,16.832759367583833,0.05559042087671959,0.11467830240169523,0.04092003901114322,0.14444806208462047,0.02291744179177994,0.11848389304982598,0.17196279040200854,0.33514245216547833,0.06395514452126812,0.14495964024888214,0.006656088476178103,0.005045121479986722
46.83668803901348,16.832878955934397,0.05559042087671959,0.11467830240169523,0.04092003901114322,0.14444806208462047,0.02291744179177994,0.11848389304982598,0.17196279040200854,0.33514245216547833,0.06395514452126812,0.14495964024888214,0.006656088476178103,0.005045121479986722
46.83673266153047,16.832968670232443,0.05559042087671959,0.11467830240169523,0.04092003901114322,0.14444806208462047,0.02291744179177994,0.11848389304982598,0.17196279040200854,0.33514245216547833,0.06395514452126812,0.14495964024888214,0.006656088476178103,0.005045121479986722
46.83676838845426,16.83303354734052,0.05559042087671959,0.11467830240169523,0.04092003901114322,0.14444806208462047,0.02291744179177994,0.11848389304982598,0.17196279040200854,0.33514245216547833,0.06395514452126812,0.14495964024888214,0.006656088476178103,0.005045121479986722
46.83683963130289,16.83317660315217,0.05559042087671959,0.11467830240169523,0.04092003901114322,0.14444806208462047,0.02291744179177994,0.11848389304982598,0.17196279040200854,0.33514245216547833,0.06395514452126812,0.14495964024888214,0.006656088476178103,0.005045121479986722
46.83689517117407,16.8333127893109,0.04879201077999929,0.07600147344841918,0.04038187651885708,0.10012883809600162,0.05992208796354555,0.1650159696098043,0.11737908148488994,0.5852290084022352,0.033142449885275524,0.07200870314043503,0.02264655005948123,0.006536254606303658
46.836953162329436,16.83347305256783,0.04879201077999929,0.07600147344841918,0.04038187651885708,0.10012883809600162,0.05992208796354555,0.1650159696098043,0.11737908148488994,0.5852290084022352,0.033142449885275524,0.07200870314043503,0.02264655005948123,0.006536254606303658
46.83700891800558,16.833686822857825,0.04879201077999929,0.07600147344841918,0.04038187651885708,0.10012883809600162,0.05992208796354555,0.1650159696098043,0.11737908148488994,0.5852290084022352,0.033142449885275524,0.07200870314043503,0.02264655005948123,0.006536254606303658
46.8370732977529,16.83389466192297,0.04879201077999929,0.07600147344841918,0.04038187651885708,0.10012883809600162,0.05992208796354555,0.1650159696098043,0.11737908148488994,0.5852290084022352,0.033142449885275524,0.07200870314043503,0.02264655005948123,0.006536254606303658
46.837124174896125,16.834080984542666,0.04879201077999929,0.07600147344841918,0.04038187651885708,0.10012883809600162,0.05992208796354555,0.1650159696098043,0.11737908148488994,0.5852290084022352,0.033142449885275524,0.07200870314043503,0.02264655005948123,0.006536254606303658
46.83720735857237,16.834432708620678,0.02160959067254022,0.0258212349239583,0.07107744426419464,0.06565425043125471,0.06433794186074854,0.05693395089680446,0.19838287350309383,0.1487704990804773,0.03149386058618159,0.0881631086242014,0.007619011905785196,0.005688368905537475
46.83728782390165,16.834838372435758,0.02160959067254022,0.0258212349239583,0.07107744426419464,0.06565425043125471,0.06433794186074854,0.05693395089680446,0.19838287350309383,0.1487704990804773,0.03149386058618159,0.0881631086242014,0.007619011905785196,0.005688368905537475
46.83735651721683,16.835254267628464,0.02160959067254022,0.0258212349239583,0.07107744426419464,0.06565425043125471,0.06433794186074854,0.05693395089680446,0.19838287350309383,0.1487704990804773,0.03149386058618159,0.0881631086242014,0.007619011905785196,0.005688368905537475
46.83739356069657,16.835623233080916,0.02160959067254022,0.0258212349239583,0.07107744426419464,0.06565425043125471,0.06433794186074854,0.05693395089680446,0.19838287350309383,0.1487704990804773,0.03149386058618159,0.0881631086242014,0.007619011905785196,0.005688368905537475
46.83741988349873,16.83599036839215,0.02160959067254022,0.0258212349239583,0.07107744426419464,0.06565425043125471,0.06433794186074854,0.05693395089680446,0.19838287350309383,0.1487704990804773,0.03149386058618159,0.0881631086242014,0.007619011905785196,0.005688368905537475
46.83743003189927,16.8361634974646,0.002864939746482502,0.0035620960391586306,0.09683691709951696,0.020567588437029907,0.004054952580895796,0.028395095558577287,0.003903471414466269,0.0016754608631414226,0.00555054437836204,0.010992879504939742,0.00046593209832827115,0.0005461958047059957
46.8374315750707,16.8361830400486,0.002864939746482502,0.0035620960391586306,0.09683691709951696,0.020567588437029907,0.004054952580895796,0.028395095558577287,0.003903471414466269,0.0016754608631414226,0.00555054437836204,0.010992879504939742,0.00046593209832827115,0.0005461958047059957
46.83743098873609,16.83618035170166,0.002864939746482502,0.0035620960391586306,0.09683691709951696,0.020567588437029907,0.004054952580895796,0.028395095558577287,0.003903471414466269,0.0016754608631414226,0.00555054437836204,0.010992879504939742,0.00046593209832827115,0.0005461958047059957
46.83743109018189,16.836184509793476,0.002864939746482502,0.0035620960391586306,0.09683691709951696,0.020567588437029907,0.004054952580895796,0.028395095558577287,0.003903471414466269,0.0016754608631414226,0.00555054437836204,0.010992879504939742,0.00046593209832827115,0.0005461958047059957
46.83743179191033,16.836186976511335,0.002864939746482502,0.0035620960391586306,0.09683691709951696,0.020567588437029907,0.004054952580895796,0.028395095558577287,0.003903471414466269,0.0016754608631414226,0.00555054437836204,0.010992879504939742,0.00046593209832827115,0.0005461958047059957
46.837429114141855,16.836184334582846,0.04321698748328257,0.018025968013193876,0.48738911714055094,0.9209419109785244,0.027332238441444168,0.023755536146907504,0.04389891358573423,0.04707045854833562,0.05276225570983381,0.028029276109960713,0.036130443626243354,0.002407092856585988
46.8374306525032,16.83619155416152,0.04321698748328257,0.018025968013193876,0.48738911714055094,0.9209419109785244,0.027332238441444168,0.023755536146907504,0.04389891358573423,0.04707045854833562,0.05276225570983381,0.028029276109960713,0.036130443626243354,0.002407092856585988
46.83743778950125,16.836277661605113,0.04321698748328257,0.018025968013193876,0.48738911714055094,0.9209419109785244,0.027332238441444168,0.023755536146907504,0.04389891358573423,0.04707045854833562,0.05276225570983381,0.028029276109960713,0.036130443626243354,0.002407092856585988
46.83742812079876,16.836567488057447,0.04321698748328257,0.018025968013193876,0.48738911714055094,0.9209419109785244,0.027332238441444168,0.023755536146907504,0.04389891358573423,0.04707045854833562,0.05276225570983381,0.028029276109960713,0.036130443626243354,0.002407092856585988
46.83742343343568,16.836836367445912,0.04321698748328257,0.018025968013193876,0.48738911714055094,0.9209419109785244,0.027332238441444168,0.023755536146907504,0.04389891358573423,0.04707045854833562,0.05276225570983381,0.028029276109960713,0.036130443626243354,0.002407092856585988
46.83742380957657,16.837114529531032,0.05657467540893585,0.03807878431800903,0.07559861832065581,0.026265637846185044,0.027277557816209868,0.09623789736134486,0.03926445909386115,0.13187571566094472,0.09321133172970891,0.09594402565564912,0.01472610875204924,0.008408959627167718
46.837448832685,16.83715522352229,0.05657467540893585,0.03807878431800903,0.07559861832065581,0.026265637846185044,0.027277557816209868,0.09623789736134486,0.03926445909386115,0.13187571566094472,0.09321133172970891,0.09594402565564912,0.01472610875204924,0.008408959627167718
46.83747347312518,16.837159484454457,0.05657467540893585,0.03807878431800903,0.07559861832065581,0.026265637846185044,0.027277557816209868,0.09623789736134486,0.03926445909386115,0.13187571566094472,0.09321133172970891,0.09594402565564912,0.01472610875204924,0.008408959627167718
46.837498751447086,16.837161550484367,0.05657467540893585,0.03807878431800903,0.07559861832065581,0.026265637846185044,0.027277557816209868,0.09623789736134486,0.03926445909386115,0.13187571566094472,0.09321133172970891,0.09594402565564912,0.01472610875204924,0.008408959627167718
46.83752409253602,16.837162526180943,0.05657467540893585,0.03807878431800903,0.07559861832065581,0.026265637846185044,0.027277557816209868,0.09623789736134486,0.03926445909386115,0.13187571566094472,0.09321133172970891,0.09594402565564912,0.01472610875204924,0.008408959627167718
46.8375505565047,16.83716283462214,0.005910605662705132,0.021449936820959283,0.008588687190324183,0.00815641838645694,0.019377826060893874,0.04613366633099174,0.03967386364357277,0.07726833381296884,0.041736234420943506,0.037439885167592356,0.0023735930991552155,0.0011868134408621945
46.8375777832783,16.83716346321275,0.005910605662705132,0.021449936820959283,0.008588687190324183,0.00815641838645694,0.019377826060893874,0.04613366633099174,0.03967386364357277,0.07726833381296884,0.041736234420943506,0.037439885167592356,0.0023735930991552155,0.0011868134408621945
46.83760421023984,16.837165329648712,0.005910605662705132,0.021449936820959283,0.008588687190324183,0.00815641838645694,0.019377826060893874,0.04613366633099174,0.03967386364357277,0.07726833381296884,0.041736234420943506,0.037439885167592356,0.0023735930991552155,0.0011868134408621945
46.837631717890574,16.83716890901689,0.005910605662705132,0.021449936820959283,0.008588687190324183,0.00815641838645694,0.019377826060893874,0.04613366633099174,0.03967386364357277,0.07726833381296884,0.041736234420943506,0.037439885167592356,0.0023735930991552155,0.0011868134408621945
46.8376594644231,16.837174711001175,0.005910605662705132,0.021449936820959283,0.008588687190324183,0.00815641838645694,0.019377826060893874,0.04613366633099174,0.03967386364357277,0.07726833381296884,0.041736234420943506,0.037439885167592356,0.0023735930991552155,0.0011868134408621945
46.83768500259376,16.83718270004405,0.02155304314488065,0.03464537607082362,0.042975798787451065,0.03945544070618781,0.03319509202429847,0.06994879216906344,0.08804040022758326,0.14092897668517812,0.04035169806216921,0.07809858874992243,0.005924330415603356,0.0031189564654065405
46.837711995245456,16.837195219768788,0.02155304314488065,0.03464537607082362,0.042975798787451065,0.03945544070618781,0.03319509202429847,0.06994879216906344,0.08804040022758326,0.14092897668517812,0.04035169806216921,0.07809858874992243,0.005924330415603356,0.0031189564654065405
46.83773942942225,16.8372112485826,0.02155304314488065,0.03464537607082362,0.042975798787451065,0.03945544070618781,0.03319509202429847,0.06994879216906344,0.08804040022758326,0.14092897668517812,0.04035169806216921,0.07809858874992243,0.005924330415603356,0.0031189564654065405
46.83778340653315,16.837214816577518,0.02155304314488065,0.03464537607082362,0.042975798787451065,0.03945544070618781,0.03319509202429847,0.06994879216906344,0.08804040022758326,0.14092897668517812,0.04035169806216921,0.07809858874992243,0.005924330415603356,0.0031189564654065405
46.83780294785111,16.83719423680951,0.02155304314488065,0.03464537607082362,0.042975798787451065,0.03945544070618781,0.03319509202429847,0.06994879216906344,0.08804040022758326,0.14092897668517812,0.04035169806216921,0.07809858874992243,0.005924330415603356,0.0031189564654065405
46.837862705164056,16.837101901173202,0.07614793106818857,0.03807878431800903,0.12426604066872214,0.2516499520690345,0.18052028344585372,0.3793282628235328,0.34816364171907505,0.5821570464816159,0.335879376833399,0.44004838312675065,0.009129871864402684,0.002407092856585988
46.8378865424192,16.837072477021792,0.07614793106818857,0.03807878431800903,0.12426604066872214,0.2516499520690345,0.18052028344585372,0.3793282628235328,0.34816364171907505,0.5821570464816159,0.335879376833399,0.44004838312675065,0.009129871864402684,0.002407092856585988
46.83793473346379,16.83701437866458,0.07614793106818857,0.03807878431800903,0.12426604066872214,0.2516499520690345,0.18052028344585372,0.3793282628235328,0.34816364171907505,0.5821570464816159,0.335879376833399,0.44004838312675065,0.009129871864402684,0.002407092856585988
46.83796258100315,16.836980925782115,0.07614793106818857,0.03807878431800903,0.12426604066872214,0.2516499520690345,0.18052028344585372,0.3793282628235328,0.34816364171907505,0.5821570464816159,0.335879376833399,0.44004838312675065,0.009129871864402684,0.002407092856585988
46.83801691410966,16.836913355972513,0.07614793106818857,0.03807878431800903,0.12426604066872214,0.2516499520690345,0.18052028344585372,0.3793282628235328,0.34816364171907505,0.5821570464816159,0.335879376833399,0.44004838312675065,0.009129871864402684,0.002407092856585988
46.8380624454792,16.836857029638335,0.01488549286035522,0.03807878431800903,0.3215592028668936,0.18399046588818854,0.03487924454789527,0.18693114913325895,0.23862751806326535,0.730730728980601,0.1381896450487053,0.18554485400790804,0.014151978146478957,0.002407092856585988
46.83811820036896,16.836773707908865,0.01488549286035522,0.03807878431800903,0.3215592028668936,0.18399046588818854,0.03487924454789527,0.18693114913325895,0.23862751806326535,0.730730728980601,0.1381896450487053,0.18554485400790804,0.014151978146478957,0.002407092856585988
46.838204376549896,16.836633952477623,0.01488549286035522,0.03807878431800903,0.3215592028668936,0.18399046588818854,0.03487924454789527,0.18693114913325895,0.23862751806326535,0.730730728980601,0.1381896450487053,0.18554485400790804,0.014151978146478957,0.002407092856585988
46.83825750330769,16.83657638314818,0.01488549286035522,0.03807878431800903,0.3215592028668936,0.18399046588818854,0.03487924454789527,0.18693114913325895,0.23862751806326535,0.730730728980601,0.1381896450487053,0.18554485400790804,0.014151978146478957,0.002407092856585988
46.83829291909803,16.836537951596693,0.01488549286035522,0.03807878431800903,0.3215592028668936,0.18399046588818854,0.03487924454789527,0.18693114913325895,0.23862751806326535,0.730730728980601,0.1381896450487053,0.18554485400790804,0.014151978146478957,0.002407092856585988
46.8383451909662,16.836481186791005,0.0028692037833334583,0.04689008864486906,0.09176377293371636,0.061984452076158505,0.03646554060256815,0.10094703959618145,0.07776174957517877,0.3573317065675319,0.02255396293366955,0.07891229417638232,0.0028422440251245234,0.00309329429132222
46.838387526746715,16.836435220862242,0.0028692037833334583,0.04689008864486906,0.09176377293371636,0.061984452076158505,0.03646554060256815,0.10094703959618145,0.07776174957517877,0.3573317065675319,0.02255396293366955,0.07891229417638232,0.0028422440251245234,0.00309329429132222
46.838445497317444,16.83637235343665,0.0028692037833334583,0.04689008864486906,0.09176377293371636,0.061984452076158505,0.03646554060256815,0.10094703959618145,0.07776174957517877,0.3573317065675319,0.02255396293366955,0.07891229417638232,0.0028422440251245234,0.00309329429132222
46.83848313167785,16.83633156784706,0.0028692037833334583,0.04689008864486906,0.09176377293371636,0.061984452076158505,0.03646554060256815,0.10094703959618145,0.07776174957517877,0.3573317065675319,0.02255396293366955,0.07891229417638232,0.0028422440251245234,0.00309329429132222
46.83851640538842,16.836295510322145,0.0028692037833334583,0.04689008864486906,0.09176377293371636,0.061984452076158505,0.03646554060256815,0.10094703959618145,0.07776174957517877,0.3573317065675319,0.02255396293366955,0.07891229417638232,0.0028422440251245234,0.00309329429132222
46.838559357814404,16.836248852599727,0.014574593697808261,0.01673264790504395,0.06486369963756856,0.03692521866466834,0.02935678273006696,0.06912875164577463,0.13198760303926171,0.09447844312089992,0.010791156159536087,0.04389136823452312,0.00028214870536815453,0.0013684087943757574
46.83859846473778,16.83620620345532,0.014574593697808261,0.01673264790504395,0.06486369963756856,0.03692521866466834,0.02935678273006696,0.06912875164577463,0.13198760303926171,0.09447844312089992,0.010791156159536087,0.04389136823452312,0.00028214870536815453,0.0013684087943757574
46.83864769963475,16.836152119433855,0.014574593697808261,0.01673264790504395,0.06486369963756856,0.03692521866466834,0.02935678273006696,0.06912875164577463,0.13198760303926171,0.09447844312089992,0.010791156159536087,0.04389136823452312,0.00028214870536815453,0.0013684087943757574
46.83867005975635,16.836127475410247,0.014574593697808261,0.01673264790504395,0.06486369963756856,0.03692521866466834,0.02935678273006696,0.06912875164577463,0.13198760303926171,0.09447844312089992,0.010791156159536087,0.04389136823452312,0.00028214870536815453,0.0013684087943757574
46.83871010343213,16.836083414167103,0.014574593697808261,0.01673264790504395,0.06486369963756856,0.03692521866466834,0.02935678273006696,0.06912875164577463,0.13198760303926171,0.09447844312089992,0.010791156159536087,0.04389136823452312,0.00028214870536815453,0.0013684087943757574
46.838743660972305,16.836046546026687,0.0032603627703463194,0.015602990120620074,0.012235013139079817,0.030480096245694206,0.011329718664401956,0.02390267998436268,0.0387600247774143,0.08467769739176115,0.0075695049575953775,0.03625765864238263,0.00031687781118465663,0.0007599809979023689
46.83877582540027,16.836011249031344,0.0032603627703463194,0.015602990120620074,0.012235013139079817,0.030480096245694206,0.011329718664401956,0.02390267998436268,0.0387600247774143,0.08467769739176115,0.0075695049575953775,0.03625765864238263,0.00031687781118465663,0.0007599809979023689
46.83880598845296,16.835978184259478,0.0032603627703463194,0.015602990120620074,0.012235013139079817,0.030480096245694206,0.011329718664401956,0.02390267998436268,0.0387600247774143,0.08467769739176115,0.0075695049575953775,0.03625765864238263,0.00031687781118465663,0.0007599809979023689
46.83884140715834,16.83593939621891,0.0032603627703463194,0.015602990120620074,0.012235013139079817,0.030480096245694206,0.011329718664401956,0.02390267998436268,0.0387600247774143,0.08467769739176115,0.0075695049575953775,0.03625765864238263,0.00031687781118465663,0.0007599809979023689
46.838872824266446,16.835904994069622,0.0032603627703463194,0.015602990120620074,0.012235013139079817,0.030480096245694206,0.011329718664401956,0.02390267998436268,0.0387600247774143,0.08467769739176115,0.0075695049575953775,0.03625765864238263,0.00031687781118465663,0.0007599809979023689
46.83892539373877,16.835847416569646,0.0033486036248509617,0.021434591191230198,0.21701907578318777,0.04623843943943202,0.017743716930887846,0.05624160239862138,0.15935128292278025,0.21258584710492218,0.018524384850652026,0.05213423403109771,0.0001795972695549181,0.0008323787749145259
46.83896800267077,16.835800660844694,0.0033486036248509617,0.021434591191230198,0.21701907578318777,0.04623843943943202,0.017743716930887846,0.05624160239862138,0.15935128292278025,0.21258584710492218,0.018524384850652026,0.05213423403109771,0.0001795972695549181,0.0008323787749145259
46.839001316186646,16.83576403088536,0.0033486036248509617,0.021434591191230198,0.21701907578318777,0.04623843943943202,0.017743716930887846,0.05624160239862138,0.15935128292278025,0.21258584710492218,0.018524384850652026,0.05213423403109771,0.0001795972695549181,0.0008323787749145259
46.839039655917816,16.835721796960968,0.0033486036248509617,0.021434591191230198,0.21701907578318777,0.04623843943943202,0.017743716930887846,0.05624160239862138,0.15935128292278025,0.21258584710492218,0.018524384850652026,0.05213423403109771,0.0001795972695549181,0.0008323787749145259
46.83907185200143,16.83568625304642,0.0033486036248509617,0.021434591191230198,0.21701907578318777,0.04623843943943202,0.017743716930887846,0.05624160239862138,0.15935128292278025,0.21258584710492218,0.018524384850652026,0.05213423403109771,0.0001795972695549181,0.0008323787749145259
46.839126746284535,16.835625364194197,0.005998395201100257,0.008626174934974098,0.6972025242033667,0.20638766925518867,0.0029555894515571088,0.0263450750240155,0.010028904208319018,0.005151287187092568,0.012826084759612227,0.00876408893730831,0.0004829706821500181,0.000996621672188281
46.8391839763575,16.835561818086443,0.005998395201100257,0.008626174934974098,0.6972025242033667,0.20638766925518867,0.0029555894515571088,0.0263450750240155,0.010028904208319018,0.005151287187092568,0.012826084759612227,0.00876408893730831,0.0004829706821500181,0.000996621672188281
46.83921197816072,16.835559619736117,0.005998395201100257,0.008626174934974098,0.6972025242033667,0.20638766925518867,0.0029555894515571088,0.0263450750240155,0.010028904208319018,0.005151287187092568,0.012826084759612227,0.00876408893730831,0.0004829706821500181,0.000996621672188281
46.83921512136105,16.835549846087698,0.005998395201100257,0.008626174934974098,0.6972025242033667,0.20638766925518867,0.0029555894515571088,0.0263450750240155,0.010028904208319018,0.005151287187092568,0.012826084759612227,0.00876408893730831,0.0004829706821500181,0.000996621672188281
46.83921512136105,16.835549846087698,0.005998395201100257,0.008626174934974098,0.6972025242033667,0.20638766925518867,0.0029555894515571088,0.0263450750240155,0.010028904208319018,0.005151287187092568,0.012826084759612227,0.00876408893730831,0.0004829706821500181,0.000996621672188281
46.83921749600868,16.835533380038605,0.013205302274555264,0.030649464767807978,0.4808280191881995,0.8688909286975984,0.03383182897624893,0.049598933753714644,0.06233053767443055,0.13633451739063232,0.03799630267403691,0.07372005729376871,0.000323824208872107,0.0009757437208472739
46.839291774859525,16.835421304823928,0.013205302274555264,0.030649464767807978,0.4808280191881995,0.8688909286975984,0.03383182897624893,0.049598933753714644,0.06233053767443055,0.13633451739063232,0.03799630267403691,0.07372005729376871,0.000323824208872107,0.0009757437208472739
46.839374655512756,16.835334578835266,0.013205302274555264,0.030649464767807978,0.4808280191881995,0.8688909286975984,0.03383182897624893,0.049598933753714644,0.06233053767443055,0.13633451739063232,0.03799630267403691,0.07372005729376871,0.000323824208872107,0.0009757437208472739
46.83944490212034,16.835256360895446,0.013205302274555264,0.030649464767807978,0.4808280191881995,0.8688909286975984,0.03383182897624893,0.049598933753714644,0.06233053767443055,0.13633451739063232,0.03799630267403691,0.07372005729376871,0.000323824208872107,0.0009757437208472739
46.83951663092945,16.835179386350415,0.013205302274555264,0.030649464767807978,0.4808280191881995,0.8688909286975984,0.03383182897624893,0.049598933753714644,0.06233053767443055,0.13633451739063232,0.03799630267403691,0.07372005729376871,0.000323824208872107,0.0009757437208472739
46.83956076162578,16.83513078122797,0.00418465705603288,0.007407907016585402,0.288977091188416,0.10529302458694345,0.005598831470913038,0.023629725722627802,0.011971686604450273,0.05656172451262924,0.016980979215830937,0.03084049703613361,0.000575275655862361,0.0006451370278840844
46.839599900922344,16.835087632258006,0.00418465705603288,0.007407907016585402,0.288977091188416,0.10529302458694345,0.005598831470913038,0.023629725722627802,0.011971686604450273,0.05656172451262924,0.016980979215830937,0.03084049703613361,0.000575275655862361,0.0006451370278840844
46.839628134063325,16.835056965623444,0.00418465705603288,0.007407907016585402,0.288977091188416,0.10529302458694345,0.005598831470913038,0.023629725722627802,0.011971686604450273,0.05656172451262924,0.016980979215830937,0.03084049703613361,0.000575275655862361,0.0006451370278840844
46.83966985956838,16.83501200620204,0.00418465705603288,0.007407907016585402,0.288977091188416,0.10529302458694345,0.005598831470913038,0.023629725722627802,0.011971686604450273,0.05656172451262924,0.016980979215830937,0.03084049703613361,0.000575275655862361,0.0006451370278840844
46.8397074977909,16.834971345631317,0.00418465705603288,0.007407907016585402,0.288977091188416,0.10529302458694345,0.005598831470913038,0.023629725722627802,0.011971686604450273,0.05656172451262924,0.016980979215830937,0.03084049703613361,0.000575275655862361,0.0006451370278840844
46.83973218034341,16.834944611439028,0.00418465705603288,0.007407907016585402,0.288977091188416,0.10529302458694345,0.005598831470913038,0.023629725722627802,0.011971686604450273,0.05656172451262924,0.016980979215830937,0.03084049703613361,0.000575275655862361,0.0006451370278840844
46.83975647204132,16.834918147766206,0.00418465705603288,0.007407907016585402,0.288977091188416,0.10529302458694345,0.005598831470913038,0.023629725722627802,0.011971686604450273,0.05656172451262924,0.016980979215830937,0.03084049703613361,0.000575275655862361,0.0006451370278840844
46.83980427868911,16.83486549549979,0.00418465705603288,0.007407907016585402,0.288977091188416,0.10529302458694345,0.005598831470913038,0.023629725722627802,0.011971686604450273,0.05656172451262924,0.016980979215830937,0.03084049703613361,0.000575275655862361,0.0006451370278840844
46.839840314862585,16.834825886255956,0.00418465705603288,0.007407907016585402,0.288977091188416,0.10529302458694345,0.005598831470913038,0.023629725722627802,0.011971686604450273,0.05656172451262924,0.016980979215830937,0.03084049703613361,0.000575275655862361,0.0006451370278840844
46.83988786369659,16.834774502364315,0.00418465705603288,0.007407907016585402,0.288977091188416,0.10529302458694345,0.005598831470913038,0.023629725722627802,0.011971686604450273,0.05656172451262924,0.016980979215830937,0.03084049703613361,0.000575275655862361,0.0006451370278840844
46.83992954922266,16.83473043870742,0.00858200292818003,0.014017092196252367,0.022877842566505126,0.03648233802147147,0.01333662217852479,0.034563292587480414,0.048055867031362796,0.0496305480915112,0.009928096227372642,0.03421812136108533,0.0005505757713298202,0.0007826582330566844
46.83996113317742,16.83469762311669,0.00858200292818003,0.014017092196252367,0.022877842566505126,0.03648233802147147,0.01333662217852479,0.034563292587480414,0.048055867031362796,0.0496305480915112,0.009928096227372642,0.03421812136108533,0.0005505757713298202,0.0007826582330566844
46.839990188441696,16.83466717866836,0.00858200292818003,0.014017092196252367,0.022877842566505126,0.03648233802147147,0.01333662217852479,0.034563292587480414,0.048055867031362796,0.0496305480915112,0.009928096227372642,0.03421812136108533,0.0005505757713298202,0.0007826582330566844
46.8400280551816,16.834626377714685,0.00858200292818003,0.014017092196252367,0.022877842566505126,0.03648233802147147,0.01333662217852479,0.034563292587480414,0.048055867031362796,0.0496305480915112,0.009928096227372642,0.03421812136108533,0.0005505757713298202,0.0007826582330566844
46.840061874971745,16.834589127662085,0.00858200292818003,0.014017092196252367,0.022877842566505126,0.03648233802147147,0.01333662217852479,0.034563292587480414,0.048055867031362796,0.0496305480915112,0.009928096227372642,0.03421812136108533,0.0005505757713298202,0.0007826582330566844
46.840089574963734,16.834559061943526,0.00858200292818003,0.014017092196252367,0.022877842566505126,0.03648233802147147,0.01333662217852479,0.034563292587480414,0.048055867031362796,0.0496305480915112,0.009928096227372642,0.03421812136108533,0.0005505757713298202,0.0007826582330566844
46.84011137791657,16.83453579945523,0.00858200292818003,0.014017092196252367,0.022877842566505126,0.03648233802147147,0.01333662217852479,0.034563292587480414,0.048055867031362796,0.0496305480915112,0.009928096227372642,0.03421812136108533,0.0005505757713298202,0.0007826582330566844
46.84013348552966,16.834512688113634,0.00858200292818003,0.014017092196252367,0.022877842566505126,0.03648233802147147,0.01333662217852479,0.034563292587480414,0.048055867031362796,0.0496305480915112,0.009928096227372642,0.03421812136108533,0.0005505757713298202,0.0007826582330566844
46.84017084664763,16.834473466658206,0.00858200292818003,0.014017092196252367,0.022877842566505126,0.03648233802147147,0.01333662217852479,0.034563292587480414,0.048055867031362796,0.0496305480915112,0.009928096227372642,0.03421812136108533,0.0005505757713298202,0.0007826582330566844
46.84020086017841,16.834440665067792,0.00858200292818003,0.014017092196252367,0.022877842566505126,0.03648233802147147,0.01333662217852479,0.034563292587480414,0.048055867031362796,0.0496305480915112,0.009928096227372642,0.03421812136108533,0.0005505757713298202,0.0007826582330566844
46.8402247213165,16.83441375832753,0.04619205175702377,0.09848464495680351,0.09919088248932444,0.1905493407750291,0.26187944917618733,0.3465975684293495,0.10232955125708754,0.1549024397995367,0.08691377114556652,0.1638917905460101,0.0037525254596063092,0.004486057884670075
46.840249417209606,16.834385274487484,0.04619205175702377,0.09848464495680351,0.09919088248932444,0.1905493407750291,0.26187944917618733,0.3465975684293495,0.10232955125708754,0.1549024397995367,0.08691377114556652,0.1638917905460101,0.0037525254596063092,0.004486057884670075
46.84027367617421,16.834357471824408,0.04619205175702377,0.09848464495680351,0.09919088248932444,0.1905493407750291,0.26187944917618733,0.3465975684293495,0.10232955125708754,0.1549024397995367,0.08691377114556652,0.1638917905460101,0.0037525254596063092,0.004486057884670075
46.84030858354328,16.834318100176347,0.04619205175702377,0.09848464495680351,0.09919088248932444,0.1905493407750291,0.26187944917618733,0.3465975684293495,0.10232955125708754,0.1549024397995367,0.08691377114556652,0.1638917905460101,0.0037525254596063092,0.004486057884670075
46.8403452408261,16.834277534312914,0.04619205175702377,0.09848464495680351,0.09919088248932444,0.1905493407750291,0.26187944917618733,0.3465975684293495,0.10232955125708754,0.1549024397995367,0.08691377114556652,0.1638917905460101,0.0037525254596063092,0.004486057884670075
46.84036131140908,16.834259448365547,0.031891090787143264,0.029849551043546717,0.034572283451418155,0.06624655200247191,0.019738532898952575,0.05565666120684412,0.014395339691845383,0.07257016961674727,0.04927819290874905,0.041151150231370816,0.005368753215980317,0.004093036953387485
46.840391514610246,16.834224286171327,0.031891090787143264,0.029849551043546717,0.034572283451418155,0.06624655200247191,0.019738532898952575,0.05565666120684412,0.014395339691845383,0.07257016961674727,0.04927819290874905,0.041151150231370816,0.005368753215980317,0.004093036953387485
46.84041602315849,16.834194603935202,0.031891090787143264,0.029849551043546717,0.034572283451418155,0.06624655200247191,0.019738532898952575,0.05565666120684412,0.014395339691845383,0.07257016961674727,0.04927819290874905,0.041151150231370816,0.005368753215980317,0.004093036953387485
46.84044620713836,16.83415687445219,0.031891090787143264,0.029849551043546717,0.034572283451418155,0.06624655200247191,0.019738532898952575,0.05565666120684412,0.014395339691845383,0.07257016961674727,0.04927819290874905,0.041151150231370816,0.005368753215980317,0.004093036953387485
46.84047271405223,16.834125044611607,0.031891090787143264,0.029849551043546717,0.034572283451418155,0.06624655200247191,0.019738532898952575,0.05565666120684412,0.014395339691845383,0.07257016961674727,0.04927819290874905,0.041151150231370816,0.005368753215980317,0.004093036953387485
46.84050277563034,16.834091308282595,0.020287018923002453,0.032793056061987555,0.015470246667940259,0.025374370646567224,0.007924761110943363,0.05045774299192663,0.1063277713504513,0.38466186823797893,0.014760382820852198,0.051756231966612935,0.007108838795641179,0.004288842982464942
46.840538893643995,16.83405402015919,0.020287018923002453,0.032793056061987555,0.015470246667940259,0.025374370646567224,0.007924761110943363,0.05045774299192663,0.1063277713504513,0.38466186823797893,0.014760382820852198,0.051756231966612935,0.007108838795641179,0.004288842982464942
46.840550188630246,16.83404282444901,0.020287018923002453,0.032793056061987555,0.015470246667940259,0.025374370646567224,0.007924761110943363,0.05045774299192663,0.1063277713504513,0.38466186823797893,0.014760382820852198,0.051756231966612935,0.007108838795641179,0.004288842982464942
46.84059310068381,16.83399919426766,0.020287018923002453,0.032793056061987555,0.015470246667940259,0.025374370646567224,0.007924761110943363,0.05045774299192663,0.1063277713504513,0.38466186823797893,0.014760382820852198,0.051756231966612935,0.007108838795641179,0.004288842982464942
46.84062245235602,16.83396868850662,0.020287018923002453,0.032793056061987555,0.015470246667940259,0.025374370646567224,0.007924761110943363,0.05045774299192663,0.1063277713504513,0.38466186823797893,0.014760382820852198,0.051756231966612935,0.007108838795641179,0.004288842982464942
46.84065635759738,16.83393223559496,0.02341991177700145,0.047777599936218856,0.025594445314677493,0.05566065651140931,0.03691758282278003,0.08180243714456972,0.10162054389888642,0.05130109797652939,0.027993600857111157,0.0476066575923019,0.0025627738687847585,0.003311731698346132
46.84069645308947,16.833886100984763,0.02341991177700145,0.047777599936218856,0.025594445314677493,0.05566065651140931,0.03691758282278003,0.08180243714456972,0.10162054389888642,0.05130109797652939,0.027993600857111157,0.0476066575923019,0.0025627738687847585,0.003311731698346132
46.84072087712838,16.833856072814907,0.02341991177700145,0.047777599936218856,0.025594445314677493,0.05566065651140931,0.03691758282278003,0.08180243714456972,0.10162054389888642,0.05130109797652939,0.027993600857111157,0.0476066575923019,0.0025627738687847585,0.003311731698346132
46.840754459350734,16.83381480514594,0.02341991177700145,0.047777599936218856,0.025594445314677493,0.05566065651140931,0.03691758282278003,0.08180243714456972,0.10162054389888642,0.05130109797652939,0.027993600857111157,0.0476066575923019,0.0025627738687847585,0.003311731698346132
46.840783827105334,16.833779867454492,0.02341991177700145,0.047777599936218856,0.025594445314677493,0.05566065651140931,0.03691758282278003,0.08180243714456972,0.10162054389888642,0.05130109797652939,0.027993600857111157,0.0476066575923019,0.0025627738687847585,0.003311731698346132
46.840808848208425,16.83375088674939,0.03052904248189654,0.01164168150220483,0.039064113231435424,0.07705835072596881,0.056983315132795274,0.029534623347795032,0.22371579012170997,0.13661130260768564,0.023371930969572702,0.02616710584635188,0.0011725056852534537,0.00184781864126204
46.84084490458782,16.833710062865634,0.03052904248189654,0.01164168150220483,0.039064113231435424,0.07705835072596881,0.056983315132795274,0.029534623347795032,0.22371579012170997,0.13661130260768564,0.023371930969572702,0.02616710584635188,0.0011725056852534537,0.00184781864126204
46.84087921167512,16.833671983496426,0.03052904248189654,0.01164168150220483,0.039064113231435424,0.07705835072596881,0.056983315132795274,0.029534623347795032,0.22371579012170997,0.13661130260768564,0.023371930969572702,0.02616710584635188,0.0011725056852534537,0.00184781864126204
46.84090289109485,16.83364613270747,0.03052904248189654,0.01164168150220483,0.039064113231435424,0.07705835072596881,0.056983315132795274,0.029534623347795032,0.22371579012170997,0.13661130260768564,0.023371930969572702,0.02616710584635188,0.0011725056852534537,0.00184781864126204
46.840933272041724,16.83361322616007,0.03052904248189654,0.01164168150220483,0.039064113231435424,0.07705835072596881,0.056983315132795274,0.029534623347795032,0.22371579012170997,0.13661130260768564,0.023371930969572702,0.02616710584635188,0.0011725056852534537,0.00184781864126204
46.84096938949359,16.833574192709627,0.03659274640414775,0.021923715038824107,0.012760159369876298,0.01673420574499132,0.0581389854369795,0.014420773150270171,0.09190978029761643,0.060774871917927034,0.057939813798851755,0.042788582572301725,0.0011687070454769399,0.002614487262593127
46.8409913259162,16.833550530751634,0.03659274640414775,0.021923715038824107,0.012760159369876298,0.01673420574499132,0.0581389854369795,0.014420773150270171,0.09190978029761643,0.060774871917927034,0.057939813798851755,0.042788582572301725,0.0011687070454769399,0.002614487262593127
46.84101772428897,16.83352219004454,0.03659274640414775,0.021923715038824107,0.012760159369876298,0.01673420574499132,0.0581389854369795,0.014420773150270171,0.09190978029761643,0.060774871917927034,0.057939813798851755,0.042788582572301725,0.0011687070454769399,0.002614487262593127
46.84105787858378,16.833480167741037,0.03659274640414775,0.021923715038824107,0.012760159369876298,0.01673420574499132,0.0581389854369795,0.014420773150270171,0.09190978029761643,0.060774871917927034,0.057939813798851755,0.042788582572301725,0.0011687070454769399,0.002614487262593127
46.84109006252741,16.833447401127415,0.03659274640414775,0.021923715038824107,0.012760159369876298,0.01673420574499132,0.0581389854369795,0.014420773150270171,0.09190978029761643,0.060774871917927034,0.057939813798851755,0.042788582572301725,0.0011687070454769399,0.002614487262593127
46.84112591685076,16.833411808229023,0.030612062690552957,0.04828491153596028,0.16505004422389835,0.24829365790100855,0.07692131317233081,0.1474341675617975,0.44244849761345106,0.2358524944187521,0.06162102876948639,0.09214540034241012,0.0035390661251364034,0.006033062819225333
46.841154596899855,16.83338400039208,0.030612062690552957,0.04828491153596028,0.16505004422389835,0.24829365790100855,0.07692131317233081,0.1474341675617975,0.44244849761345106,0.2358524944187521,0.06162102876948639,0.09214540034241012,0.0035390661251364034,0.006033062819225333
46.841184700616566,16.833355436601487,0.030612062690552957,0.04828491153596028,0.16505004422389835,0.24829365790100855,0.07692131317233081,0.1474341675617975,0.44244849761345106,0.2358524944187521,0.06162102876948639,0.09214540034241012,0.0035390661251364034,0.006033062819225333
46.8412167154928,16.833325023508586,0.030612062690552957,0.04828491153596028,0.16505004422389835,0.24829365790100855,0.07692131317233081,0.1474341675617975,0.44244849761345106,0.2358524944187521,0.06162102876948639,0.09214540034241012,0.0035390661251364034,0.006033062819225333
46.8412485164523,16.83329359957666,0.030612062690552957,0.04828491153596028,0.16505004422389835,0.24829365790100855,0.07692131317233081,0.1474341675617975,0.44244849761345106,0.2358524944187521,0.06162102876948639,0.09214540034241012,0.0035390661251364034,0.006033062819225333
46.84127464981449,16.833266797825303,0.04515386389732749,0.02991272877173886,0.5964414975021921,0.1459178620065245,0.07211808325119234,0.059609981464667214,0.2865885536411144,0.201052546840253,0.07646369949421014,0.04452992982280687,0.0031949932525341244,0.007056326294175831
46.84131186321768,16.83322977939215,0.04515386389732749,0.02991272877173886,0.5964414975021921,0.1459178620065245,0.07211808325119234,0.059609981464667214,0.2865885536411144,0.201052546840253,0.07646369949421014,0.04452992982280687,0.0031949932525341244,0.007056326294175831
46.841350672778596,16.83319443309696,0.04515386389732749,0.02991272877173886,0.5964414975021921,0.1459178620065245,0.07211808325119234,0.059609981464667214,0.2865885536411144,0.201052546840253,0.07646369949421014,0.04452992982280687,0.0031949932525341244,0.007056326294175831
46.84139577569846,16.833154717785725,0.04515386389732749,0.02991272877173886,0.5964414975021921,0.1459178620065245,0.07211808325119234,0.059609981464667214,0.2865885536411144,0.201052546840253,0.07646369949421014,0.04452992982280687,0.0031949932525341244,0.007056326294175831
46.841442455890494,16.83311338444213,0.04515386389732749,0.02991272877173886,0.5964414975021921,0.1459178620065245,0.07211808325119234,0.059609981464667214,0.2865885536411144,0.201052546840253,0.07646369949421014,0.04452992982280687,0.0031949932525341244,0.007056326294175831
46.841491751452836,16.83307155872744,0.02060577626793102,0.15856797526233005,0.3803942275039436,0.08380139448558119,0.08552117102476832,0.21967199157469158,0.13712245319862232,0.4449286362313073,0.13550828251475294,0.2549010984505233,0.01301615775027302,0.031309240931047706
46.841540381224625,16.83302818598009,0.02060577626793102,0.15856797526233005,0.3803942275039436,0.08380139448558119,0.08552117102476832,0.21967199157469158,0.13712245319862232,0.4449286362313073,0.13550828251475294,0.2549010984505233,0.01301615775027302,0.031309240931047706
46.84158213896892,16.832987435952344,0.02060577626793102,0.15856797526233005,0.3803942275039436,0.08380139448558119,0.08552117102476832,0.21967199157469158,0.13712245319862232,0.4449286362313073,0.13550828251475294,0.2549010984505233,0.01301615775027302,0.031309240931047706
46.84164726137782,16.83291962372446,0.02060577626793102,0.15856797526233005,0.3803942275039436,0.08380139448558119,0.08552117102476832,0.21967199157469158,0.13712245319862232,0.4449286362313073,0.13550828251475294,0.2549010984505233,0.01301615775027302,0.031309240931047706
46.84168260227666,16.832884555137333,0.02060577626793102,0.15856797526233005,0.3803942275039436,0.08380139448558119,0.08552117102476832,0.21967199157469158,0.13712245319862232,0.4449286362313073,0.13550828251475294,0.2549010984505233,0.01301615775027302,0.031309240931047706
46.84172407347185,16.83284505600103,0.026519718408059396,0.04554355585243262,0.039938899254571204,0.09065490612531756,0.027426689274811934,0.05157967664377708,0.07372397291717019,0.07778703130477535,0.021902972990857705,0.056191777824467805,0.0028715188256360127,0.002005248551559775
46.84175628931839,16.832815231251388,0.026519718408059396,0.04554355585243262,0.039938899254571204,0.09065490612531756,0.027426689274811934,0.05157967664377708,0.07372397291717019,0.07778703130477535,0.021902972990857705,0.056191777824467805,0.0028715188256360127,0.002005248551559775
46.84178439301613,16.832789782038212,0.026519718408059396,0.04554355585243262,0.039938899254571204,0.09065490612531756,0.027426689274811934,0.05157967664377708,0.07372397291717019,0.07778703130477535,0.021902972990857705,0.056191777824467805,0.0028715188256360127,0.002005248551559775
46.84180996421245,16.83276696728508,0.026519718408059396,0.04554355585243262,0.039938899254571204,0.09065490612531756,0.027426689274811934,0.05157967664377708,0.07372397291717019,0.07778703130477535,0.021902972990857705,0.056191777824467805,0.0028715188256360127,0.002005248551559775
46.84184074051399,16.832739942437843,0.026519718408059396,0.04554355585243262,0.039938899254571204,0.09065490612531756,0.027426689274811934,0.05157967664377708,0.07372397291717019,0.07778703130477535,0.021902972990857705,0.056191777824467805,0.0028715188256360127,0.002005248551559775
46.84185861600544,16.832724527778645,0.00892034711162517,0.0540546014154027,0.018368167244233083,0.04507275118286624,0.012159769852369589,0.09613354024638164,0.4743423061012088,1.0985402987271562,0.02598238197703382,0.046841067486511984,0.0028718025515333985,0.003652071018803428
46.84188641004992,16.832700036562287,0.00892034711162517,0.0540546014154027,0.018368167244233083,0.04507275118286624,0.012159769852369589,0.09613354024638164,0.4743423061012088,1.0985402987271562,0.02598238197703382,0.046841067486511984,0.0028718025515333985,0.003652071018803428
46.841927294063595,16.832662721006685,0.00892034711162517,0.0540546014154027,0.018368167244233083,0.04507275118286624,0.012159769852369589,0.09613354024638164,0.4743423061012088,1.0985402987271562,0.02598238197703382,0.046841067486511984,0.0028718025515333985,0.003652071018803428
46.84196080222449,16.832631202549166,0.00892034711162517,0.0540546014154027,0.018368167244233083,0.04507275118286624,0.012159769852369589,0.09613354024638164,0.4743423061012088,1.0985402987271562,0.02598238197703382,0.046841067486511984,0.0028718025515333985,0.003652071018803428
46.841983591590754,16.83260968177823,0.00892034711162517,0.0540546014154027,0.018368167244233083,0.04507275118286624,0.012159769852369589,0.09613354024638164,0.4743423061012088,1.0985402987271562,0.02598238197703382,0.046841067486511984,0.0028718025515333985,0.003652071018803428
46.84202365638563,16.83257193218618,0.00683743305872511,0.01583005900102004,0.02876247304955678,0.06102631133653008,0.06050811866670171,0.0695242027814428,0.34043372958076384,0.22724146559565103,0.015765970879249955,0.03254182614218009,0.001028140830694006,0.0018003895770387168
46.842057240018924,16.83254032155153,0.00683743305872511,0.01583005900102004,0.02876247304955678,0.06102631133653008,0.06050811866670171,0.0695242027814428,0.34043372958076384,0.22724146559565103,0.015765970879249955,0.03254182614218009,0.001028140830694006,0.0018003895770387168
46.842090060003926,16.832509170274186,0.00683743305872511,0.01583005900102004,0.02876247304955678,0.06102631133653008,0.06050811866670171,0.0695242027814428,0.34043372958076384,0.22724146559565103,0.015765970879249955,0.03254182614218009,0.001028140830694006,0.0018003895770387168
46.84212934455617,16.83247145600522,0.00683743305872511,0.01583005900102004,0.02876247304955678,0.06102631133653008,0.06050811866670171,0.0695242027814428,0.34043372958076384,0.22724146559565103,0.015765970879249955,0.03254182614218009,0.001028140830694006,0.0018003895770387168
46.84215625104397,16.832445558708116,0.00683743305872511,0.01583005900102004,0.02876247304955678,0.06102631133653008,0.06050811866670171,0.0695242027814428,0.34043372958076384,0.22724146559565103,0.015765970879249955,0.03254182614218009,0.001028140830694006,0.0018003895770387168
46.84218818622105,16.832415084951112,0.06758018684928295,0.09902347274533776,0.05425208151859751,0.07482232441492287,0.09729569758036703,0.10635270681247014,0.5651823067568404,0.5167709775854665,0.1478928649036269,0.1565380468003452,0.003764249059544405,0.002407092856585988
46.842242745558984,16.83236396402722,0.06758018684928295,0.09902347274533776,0.05425208151859751,0.07482232441492287,0.09729569758036703,0.10635270681247014,0.5651823067568404,0.5167709775854665,0.1478928649036269,0.1565380468003452,0.003764249059544405,0.002407092856585988
46.84226743269887,16.832341642145632,0.06758018684928295,0.09902347274533776,0.05425208151859751,0.07482232441492287,0.09729569758036703,0.10635270681247014,0.5651823067568404,0.5167709775854665,0.1478928649036269,0.1565380468003452,0.003764249059544405,0.002407092856585988
46.8422869625519,16.832324258248768,0.06758018684928295,0.09902347274533776,0.05425208151859751,0.07482232441492287,0.09729569758036703,0.10635270681247014,0.5651823067568404,0.5167709775854665,0.1478928649036269,0.1565380468003452,0.003764249059544405,0.002407092856585988
46.84232204863347,16.832293781065708,0.06758018684928295,0.09902347274533776,0.05425208151859751,0.07482232441492287,0.09729569758036703,0.10635270681247014,0.5651823067568404,0.5167709775854665,0.1478928649036269,0.1565380468003452,0.003764249059544405,0.002407092856585988
46.84238027589786,16.832241321656866,0.015359800311010313,0.039081025695958324,0.01976300396485258,0.03191240188911443,0.02424386133638233,0.06657506360577474,0.19166233255808002,0.18709024648398126,0.02214517435532503,0.044082250191151,0.001748817741575736,0.0023309797705143563
46.84239064891887,16.832231572647995,0.015359800311010313,0.039081025695958324,0.01976300396485258,0.03191240188911443,0.02424386133638233,0.06657506360577474,0.19166233255808002,0.18709024648398126,0.02214517435532503,0.044082250191151,0.001748817741575736,0.0023309797705143563
46.84243037154243,16.83219446598413,0.015359800311010313,0.039081025695958324,0.01976300396485258,0.03191240188911443,0.02424386133638233,0.06657506360577474,0.19166233255808002,0.18709024648398126,0.02214517435532503,0.044082250191151,0.001748817741575736,0.0023309797705143563
46.84244997611001,16.832176306395436,0.015359800311010313,0.039081025695958324,0.01976300396485258,0.03191240188911443,0.02424386133638233,0.06657506360577474,0.19166233255808002,0.18709024648398126,0.02214517435532503,0.044082250191151,0.001748817741575736,0.0023309797705143563
46.842498359688236,16.832132017924486,0.015359800311010313,0.039081025695958324,0.01976300396485258,0.03191240188911443,0.02424386133638233,0.06657506360577474,0.19166233255808002,0.18709024648398126,0.02214517435532503,0.044082250191151,0.001748817741575736,0.0023309797705143563
46.84252338211877,16.83210927583324,0.012350293224210279,0.02536732682260353,0.01625146698703982,0.031919890976262764,0.00964764396854228,0.036744318798560216,0.034111102941645544,0.03404610016738265,0.013128616092892476,0.03578067270232385,0.0003446395872654132,0.0007831531995012424
46.84255580449161,16.832079931266836,0.012350293224210279,0.02536732682260353,0.01625146698703982,0.031919890976262764,0.00964764396854228,0.036744318798560216,0.034111102941645544,0.03404610016738265,0.013128616092892476,0.03578067270232385,0.0003446395872654132,0.0007831531995012424
46.84259305210474,16.832046429079085,0.012350293224210279,0.02536732682260353,0.01625146698703982,0.031919890976262764,0.00964764396854228,0.036744318798560216,0.034111102941645544,0.03404610016738265,0.013128616092892476,0.03578067270232385,0.0003446395872654132,0.0007831531995012424
46.84262423492536,16.83201866465874,0.012350293224210279,0.02536732682260353,0.01625146698703982,0.031919890976262764,0.00964764396854228,0.036744318798560216,0.034111102941645544,0.03404610016738265,0.013128616092892476,0.03578067270232385,0.0003446395872654132,0.0007831531995012424
46.84265061920202,16.831995382808064,0.012350293224210279,0.02536732682260353,0.01625146698703982,0.031919890976262764,0.00964764396854228,0.036744318798560216,0.034111102941645544,0.03404610016738265,0.013128616092892476,0.03578067270232385,0.0003446395872654132,0.0007831531995012424
46.84268335699271,16.831966353506676,0.00196319646008851,0.02337387823985185,0.030958931549140454,0.05287638044905309,0.03571092229755961,0.07871590389018665,0.08126603447743602,0.25120839852210086,0.00953705542516851,0.03910448778083615,0.00037253161252175684,0.0018304754542350441
46.842710845080724,16.831941191555103,0.00196319646008851,0.02337387823985185,0.030958931549140454,0.05287638044905309,0.03571092229755961,0.07871590389018665,0.08126603447743602,0.25120839852210086,0.00953705542516851,0.03910448778083615,0.00037253161252175684,0.0018304754542350441
46.842739866433334,16.83191378112884,0.00196319646008851,0.02337387823985185,0.030958931549140454,0.05287638044905309,0.03571092229755961,0.07871590389018665,0.08126603447743602,0.25120839852210086,0.00953705542516851,0.03910448778083615,0.00037253161252175684,0.0018304754542350441
46.842774400652594,16.831880796473435,0.00196319646008851,0.02337387823985185,0.030958931549140454,0.05287638044905309,0.03571092229755961,0.07871590389018665,0.08126603447743602,0.25120839852210086,0.00953705542516851,0.03910448778083615,0.00037253161252175684,0.0018304754542350441
46.842820553103415,16.831838583342957,0.00196319646008851,0.02337387823985185,0.030958931549140454,0.05287638044905309,0.03571092229755961,0.07871590389018665,0.08126603447743602,0.25120839852210086,0.00953705542516851,0.03910448778083615,0.00037253161252175684,0.0018304754542350441
46.84283166585071,16.831828809748117,0.06691514085196763,0.01742381097225449,0.01920624505671676,0.028595395132171623,0.07062845538095364,0.05632963889389737,0.21808447289453683,0.23052851161070637,0.18541308291579736,0.03561319348624801,0.0023988403402854367,0.0015257351507255866
46.84287385344193,16.831791049188993,0.06691514085196763,0.01742381097225449,0.01920624505671676,0.028595395132171623,0.07062845538095364,0.05632963889389737,0.21808447289453683,0.23052851161070637,0.18541308291579736,0.03561319348624801,0.0023988403402854367,0.0015257351507255866
46.842901866274666,16.83176522642299,0.06691514085196763,0.01742381097225449,0.01920624505671676,0.028595395132171623,0.07062845538095364,0.05632963889389737,0.21808447289453683,0.23052851161070637,0.18541308291579736,0.03561319348624801,0.0023988403402854367,0.0015257351507255866
46.842926369253554,16.831742129476872,0.06691514085196763,0.01742381097225449,0.01920624505671676,0.028595395132171623,0.07062845538095364,0.05632963889389737,0.21808447289453683,0.23052851161070637,0.18541308291579736,0.03561319348624801,0.0023988403402854367,0.0015257351507255866
46.84296519628298,16.831705231168844,0.06691514085196763,0.01742381097225449,0.01920624505671676,0.028595395132171623,0.07062845538095364,0.05632963889389737,0.21808447289453683,0.23052851161070637,0.18541308291579736,0.03561319348624801,0.0023988403402854367,0.0015257351507255866
46.842995366254755,16.83167647849124,0.046679324037487084,0.0272708212243324,0.01618152907947197,0.039310781183477604,0.027690580617343738,0.045702743025730054,0.18699268098165267,0.17708954471329894,0.06332689915335635,0.0419691751152634,0.0011325769631805316,0.0010788285497989564
46.843041600193814,16.831632731768284,0.046679324037487084,0.0272708212243324,0.01618152907947197,0.039310781183477604,0.027690580617343738,0.045702743025730054,0.18699268098165267,0.17708954471329894,0.06332689915335635,0.0419691751152634,0.0011325769631805316,0.0010788285497989564
46.84306768553509,16.8316085678192,0.046679324037487084,0.0272708212243324,0.01618152907947197,0.039310781183477604,0.027690580617343738,0.045702743025730054,0.18699268098165267,0.17708954471329894,0.06332689915335635,0.0419691751152634,0.0011325769631805316,0.0010788285497989564
46.843113074268935,16.83156742275471,0.046679324037487084,0.0272708212243324,0.01618152907947197,0.039310781183477604,0.027690580617343738,0.045702743025730054,0.18699268098165267,0.17708954471329894,0.06332689915335635,0.0419691751152634,0.0011325769631805316,0.0010788285497989564
46.84314978768391,16.831534582397108,0.046679324037487084,0.0272708212243324,0.01618152907947197,0.039310781183477604,0.027690580617343738,0.045702743025730054,0.18699268098165267,0.17708954471329894,0.06332689915335635,0.0419691751152634,0.0011325769631805316,0.0010788285497989564
46.84320444417911,16.83148646707143,0.00723692592778495,0.010485199495104373,0.16426923590781622,0.13308544829563748,0.014346458878824742,0.04932883318984091,0.04545573226354015,0.051294651643402654,0.007873273187813506,0.02123560951071918,0.0004292165253592056,0.0010823098303195209
46.8432623662815,16.831435168758563,0.00723692592778495,0.010485199495104373,0.16426923590781622,0.13308544829563748,0.014346458878824742,0.04932883318984091,0.04545573226354015,0.051294651643402654,0.007873273187813506,0.02123560951071918,0.0004292165253592056,0.0010823098303195209
46.843332128463324,16.831364312061208,0.00723692592778495,0.010485199495104373,0.16426923590781622,0.13308544829563748,0.014346458878824742,0.04932883318984091,0.04545573226354015,0.051294651643402654,0.007873273187813506,0.02123560951071918,0.0004292165253592056,0.0010823098303195209
46.843398702067255,16.83128890302639,0.00723692592778495,0.010485199495104373,0.16426923590781622,0.13308544829563748,0.014346458878824742,0.04932883318984091,0.04545573226354015,0.051294651643402654,0.007873273187813506,0.02123560951071918,0.0004292165253592056,0.0010823098303195209
46.84341126628464,16.83126698521437,0.00723692592778495,0.010485199495104373,0.16426923590781622,0.13308544829563748,0.014346458878824742,0.04932883318984091,0.04545573226354015,0.051294651643402654,0.007873273187813506,0.02123560951071918,0.0004292165253592056,0.0010823098303195209
46.84340713181402,16.83127944959897,0.08798827836753842,0.015455681222852867,0.34295065892284776,0.3261506606710713,0.048980662682673204,0.03263011518642593,0.2544436291274188,0.019360992770735903,0.2686121387785906,0.016767777062592342,0.004387354541975756,0.002407092856585988
46.84340053821353,16.8312973211717,0.08798827836753842,0.015455681222852867,0.34295065892284776,0.3261506606710713,0.048980662682673204,0.03263011518642593,0.2544436291274188,0.019360992770735903,0.2686121387785906,0.016767777062592342,0.004387354541975756,0.002407092856585988
46.843400692322604,16.831298148070427,0.08798827836753842,0.015455681222852867,0.34295065892284776,0.3261506606710713,0.048980662682673204,0.03263011518642593,0.2544436291274188,0.019360992770735903,0.2686121387785906,0.016767777062592342,0.004387354541975756,0.002407092856585988
46.84343793571684,16.831243280763047,0.08798827836753842,0.015455681222852867,0.34295065892284776,0.3261506606710713,0.048980662682673204,0.03263011518642593,0.2544436291274188,0.019360992770735903,0.2686121387785906,0.016767777062592342,0.004387354541975756,0.002407092856585988
46.84350259526402,16.831181862338266,0.08798827836753842,0.015455681222852867,0.34295065892284776,0.3261506606710713,0.048980662682673204,0.03263011518642593,0.2544436291274188,0.019360992770735903,0.2686121387785906,0.016767777062592342,0.004387354541975756,0.002407092856585988
46.84357970234304,16.831110822848597,0.027458958532740434,0.054728961909364965,0.1634801710279188,0.08414479035323734,0.03675721666909471,0.08936555407048585,0.09647074932934574,0.2567379186634968,0.07642517115325444,0.12103595387294618,0.00236497681883004,0.0024941784369768598
46.843616138225606,16.831088328950543,0.027458958532740434,0.054728961909364965,0.1634801710279188,0.08414479035323734,0.03675721666909471,0.08936555407048585,0.09647074932934574,0.2567379186634968,0.07642517115325444,0.12103595387294618,0.00236497681883004,0.0024941784369768598
46.84367221272387,16.83104194238679,0.027458958532740434,0.054728961909364965,0.1634801710279188,0.08414479035323734,0.03675721666909471,0.08936555407048585,0.09647074932934574,0.2567379186634968,0.07642517115325444,0.12103595387294618,0.00236497681883004,0.0024941784369768598
46.843736134910216,16.83098225747777,0.027458958532740434,0.054728961909364965,0.1634801710279188,0.08414479035323734,0.03675721666909471,0.08936555407048585,0.09647074932934574,0.2567379186634968,0.07642517115325444,0.12103595387294618,0.00236497681883004,0.0024941784369768598
46.843795603204455,16.830928224776088,0.027458958532740434,0.054728961909364965,0.1634801710279188,0.08414479035323734,0.03675721666909471,0.08936555407048585,0.09647074932934574,0.2567379186634968,0.07642517115325444,0.12103595387294618,0.00236497681883004,0.0024941784369768598
46.843823825334,16.830902781677832,0.027458958532740434,0.054728961909364965,0.1634801710279188,0.08414479035323734,0.03675721666909471,0.08936555407048585,0.09647074932934574,0.2567379186634968,0.07642517115325444,0.12103595387294618,0.00236497681883004,0.0024941784369768598
46.843852405570644,16.83087707470237,0.027458958532740434,0.054728961909364965,0.1634801710279188,0.08414479035323734,0.03675721666909471,0.08936555407048585,0.09647074932934574,0.2567379186634968,0.07642517115325444,0.12103595387294618,0.00236497681883004,0.0024941784369768598
46.84388840921922,16.83084456977669,0.027458958532740434,0.054728961909364965,0.1634801710279188,0.08414479035323734,0.03675721666909471,0.08936555407048585,0.09647074932934574,0.2567379186634968,0.07642517115325444,0.12103595387294618,0.00236497681883004,0.0024941784369768598
46.84392593946079,16.830810373237142,0.027458958532740434,0.054728961909364965,0.1634801710279188,0.08414479035323734,0.03675721666909471,0.08936555407048585,0.09647074932934574,0.2567379186634968,0.07642517115325444,0.12103595387294618,0.00236497681883004,0.0024941784369768598
46.843969172950544,16.830770514054546,0.027458958532740434,0.054728961909364965,0.1634801710279188,0.08414479035323734,0.03675721666909471,0.08936555407048585,0.09647074932934574,0.2567379186634968,0.07642517115325444,0.12103595387294618,0.00236497681883004,0.0024941784369768598
46.84400445786809,16.830737451246684,0.013363638771271277,0.012234945093864772,0.21116732461671509,0.1024344793602379,0.023600267215095984,0.056394403680978145,0.04402027914129385,0.11446982137899002,0.03730342847464629,0.05645074967483914,0.0012027995579666094,0.0008511897156029379
46.84402776419213,16.830715324063338,0.013363638771271277,0.012234945093864772,0.21116732461671509,0.1024344793602379,0.023600267215095984,0.056394403680978145,0.04402027914129385,0.11446982137899002,0.03730342847464629,0.05645074967483914,0.0012027995579666094,0.0008511897156029379
46.844068762395594,16.83067628085036,0.013363638771271277,0.012234945093864772,0.21116732461671509,0.1024344793602379,0.023600267215095984,0.056394403680978145,0.04402027914129385,0.11446982137899002,0.03730342847464629,0.05645074967483914,0.0012027995579666094,0.0008511897156029379
46.844097175225855,16.830649232942278,0.013363638771271277,0.012234945093864772,0.21116732461671509,0.1024344793602379,0.023600267215095984,0.056394403680978145,0.04402027914129385,0.11446982137899002,0.03730342847464629,0.05645074967483914,0.0012027995579666094,0.0008511897156029379
46.844127965277345,16.830620117743326,0.013363638771271277,0.012234945093864772,0.21116732461671509,0.1024344793602379,0.023600267215095984,0.056394403680978145,0.04402027914129385,0.11446982137899002,0.03730342847464629,0.05645074967483914,0.0012027995579666094,0.0008511897156029379
46.84417391988384,16.8305779764493,0.0036547149099922715,0.016153991254058517,0.006091842058548124,0.02122240328165687,0.010931530859512817,0.056699131078856796,0.036133319606458346,0.08150586821205984,0.006853159422470858,0.03574520347594762,0.00039537164929019956,0.0008135747444838174
46.84419881451139,16.83055577671614,0.0036547149099922715,0.016153991254058517,0.006091842058548124,0.02122240328165687,0.010931530859512817,0.056699131078856796,0.036133319606458346,0.08150586821205984,0.006853159422470858,0.03574520347594762,0.00039537164929019956,0.0008135747444838174
46.84422428355267,16.830532985915866,0.0036547149099922715,0.016153991254058517,0.006091842058548124,0.02122240328165687,0.010931530859512817,0.056699131078856796,0.036133319606458346,0.08150586821205984,0.006853159422470858,0.03574520347594762,0.00039537164929019956,0.0008135747444838174
46.84425614584838,16.83050415077965,0.0036547149099922715,0.016153991254058517,0.006091842058548124,0.02122240328165687,0.010931530859512817,0.056699131078856796,0.036133319606458346,0.08150586821205984,0.006853159422470858,0.03574520347594762,0.00039537164929019956,0.0008135747444838174
46.8442831272629,16.830479475446413,0.0036547149099922715,0.016153991254058517,0.006091842058548124,0.02122240328165687,0.010931530859512817,0.056699131078856796,0.036133319606458346,0.08150586821205984,0.006853159422470858,0.03574520347594762,0.00039537164929019956,0.0008135747444838174
46.844311515840424,16.83045327719869,0.005856509704719403,0.012377804114282553,0.05685873931414007,0.04744505355714272,0.01509180113321044,0.03378850381870809,0.16047677341218508,0.278426348995535,0.010340635654706644,0.03402741054495813,0.00047587690315842947,0.000536609677739859
46.84433560962168,16.830430869173707,0.005856509704719403,0.012377804114282553,0.05685873931414007,0.04744505355714272,0.01509180113321044,0.03378850381870809,0.16047677341218508,0.278426348995535,0.010340635654706644,0.03402741054495813,0.00047587690315842947,0.000536609677739859
46.84436212410821,16.830406033217624,0.005856509704719403,0.012377804114282553,0.05685873931414007,0.04744505355714272,0.01509180113321044,0.03378850381870809,0.16047677341218508,0.278426348995535,0.010340635654706644,0.03402741054495813,0.00047587690315842947,0.000536609677739859
46.84439273792913,16.83037712962736,0.005856509704719403,0.012377804114282553,0.05685873931414007,0.04744505355714272,0.01509180113321044,0.03378850381870809,0.16047677341218508,0.278426348995535,0.010340635654706644,0.03402741054495813,0.00047587690315842947,0.000536609677739859
46.844417049798004,16.830354064089757,0.005856509704719403,0.012377804114282553,0.05685873931414007,0.04744505355714272,0.01509180113321044,0.03378850381870809,0.16047677341218508,0.278426348995535,0.010340635654706644,0.03402741054495813,0.00047587690315842947,0.000536609677739859
46.844440597175314,16.830331653351188,0.009731722738051384,0.008880992861854892,0.008110045574288034,0.021911796069052518,0.04077514203734627,0.055749456692732256,0.07387686387150086,0.19373991274246435,0.02863553357043059,0.03700675108008095,0.001121839398298183,0.00039601176320438265
46.844468913093316,16.83030461023292,0.009731722738051384,0.008880992861854892,0.008110045574288034,0.021911796069052518,0.04077514203734627,0.055749456692732256,0.07387686387150086,0.19373991274246435,0.02863553357043059,0.03700675108008095,0.001121839398298183,0.00039601176320438265
46.84449506030136,16.830279557861882,0.009731722738051384,0.008880992861854892,0.008110045574288034,0.021911796069052518,0.04077514203734627,0.055749456692732256,0.07387686387150086,0.19373991274246435,0.02863553357043059,0.03700675108008095,0.001121839398298183,0.00039601176320438265
46.844507351735984,16.830267785140084,0.009731722738051384,0.008880992861854892,0.008110045574288034,0.021911796069052518,0.04077514203734627,0.055749456692732256,0.07387686387150086,0.19373991274246435,0.02863553357043059,0.03700675108008095,0.001121839398298183,0.00039601176320438265
46.84454858244848,16.830228501435194,0.009731722738051384,0.008880992861854892,0.008110045574288034,0.021911796069052518,0.04077514203734627,0.055749456692732256,0.07387686387150086,0.19373991274246435,0.02863553357043059,0.03700675108008095,0.001121839398298183,0.00039601176320438265
46.84457587868418,16.830202620094383,0.053806156528582165,0.03962399237889002,0.022081241797793215,0.07856626884237257,0.07085464615166534,0.05087542763633249,0.27765528290054764,0.3945978400857345,0.04867897813712722,0.06610456352182603,0.0014227244169893402,0.002150297654166344
46.84460641874696,16.830173704893678,0.053806156528582165,0.03962399237889002,0.022081241797793215,0.07856626884237257,0.07085464615166534,0.05087542763633249,0.27765528290054764,0.3945978400857345,0.04867897813712722,0.06610456352182603,0.0014227244169893402,0.002150297654166344
46.844633240248065,16.830148198550194,0.053806156528582165,0.03962399237889002,0.022081241797793215,0.07856626884237257,0.07085464615166534,0.05087542763633249,0.27765528290054764,0.3945978400857345,0.04867897813712722,0.06610456352182603,0.0014227244169893402,0.002150297654166344
46.84466255386026,16.830120193280234,0.053806156528582165,0.03962399237889002,0.022081241797793215,0.07856626884237257,0.07085464615166534,0.05087542763633249,0.27765528290054764,0.3945978400857345,0.04867897813712722,0.06610456352182603,0.0014227244169893402,0.002150297654166344
46.84470096496984,16.830083351843292,0.053806156528582165,0.03962399237889002,0.022081241797793215,0.07856626884237257,0.07085464615166534,0.05087542763633249,0.27765528290054764,0.3945978400857345,0.04867897813712722,0.06610456352182603,0.0014227244169893402,0.002150297654166344
46.84472603766524,16.830059342950385,0.0016032131492873319,0.006609589169750412,0.037081859194940024,0.022066486391078843,0.004064403511871198,0.011847470038664995,0.021727329432768543,0.011379385544418062,0.0021870278452643032,0.012147783288778661,5.7376757690357546e-05,0.0003584329689644521
46.84476256714114,16.83002444436716,0.0016032131492873319,0.006609589169750412,0.037081859194940024,0.022066486391078843,0.004064403511871198,0.011847470038664995,0.021727329432768543,0.011379385544418062,0.0021870278452643032,0.012147783288778661,5.7376757690357546e-05,0.0003584329689644521
46.84479461798524,16.82999389670905,0.0016032131492873319,0.006609589169750412,0.037081859194940024,0.022066486391078843,0.004064403511871198,0.011847470038664995,0.021727329432768543,0.011379385544418062,0.0021870278452643032,0.012147783288778661,5.7376757690357546e-05,0.0003584329689644521
46.84480699550813,16.829982111958422,0.0016032131492873319,0.006609589169750412,0.037081859194940024,0.022066486391078843,0.004064403511871198,0.011847470038664995,0.021727329432768543,0.011379385544418062,0.0021870278452643032,0.012147783288778661,5.7376757690357546e-05,0.0003584329689644521
46.84483988325458,16.82995085649528,0.0016032131492873319,0.006609589169750412,0.037081859194940024,0.022066486391078843,0.004064403511871198,0.011847470038664995,0.021727329432768543,0.011379385544418062,0.0021870278452643032,0.012147783288778661,5.7376757690357546e-05,0.0003584329689644521
46.84488363446899,16.829909443849385,0.007860751441233948,0.02081178712457865,0.04891054202658198,0.03598823835934351,0.08941028429337883,0.11228325899330509,0.10310542577278821,0.20726178532674247,0.014649829164534769,0.028914916508790776,0.0005026150333253296,0.0007170954632390883
46.844912797143564,16.829882124481674,0.007860751441233948,0.02081178712457865,0.04891054202658198,0.03598823835934351,0.08941028429337883,0.11228325899330509,0.10310542577278821,0.20726178532674247,0.014649829164534769,0.028914916508790776,0.0005026150333253296,0.0007170954632390883
46.844938806905496,16.829857979330775,0.007860751441233948,0.02081178712457865,0.04891054202658198,0.03598823835934351,0.08941028429337883,0.11228325899330509,0.10310542577278821,0.20726178532674247,0.014649829164534769,0.028914916508790776,0.0005026150333253296,0.0007170954632390883
46.84497058664174,16.829828845057715,0.007860751441233948,0.02081178712457865,0.04891054202658198,0.03598823835934351,0.08941028429337883,0.11228325899330509,0.10310542577278821,0.20726178532674247,0.014649829164534769,0.028914916508790776,0.0005026150333253296,0.0007170954632390883
46.844999806615895,16.829802815140596,0.007860751441233948,0.02081178712457865,0.04891054202658198,0.03598823835934351,0.08941028429337883,0.11228325899330509,0.10310542577278821,0.20726178532674247,0.014649829164534769,0.028914916508790776,0.0005026150333253296,0.0007170954632390883
46.84502998135502,16.829776761023325,0.004925756647601502,0.010857723433241009,0.04421041094640059,0.12795216517383037,0.06473160614643461,0.08573756586677062,0.041586027698336935,0.09644291804970896,0.046069466926331376,0.027979784377130133,0.0009108372730380163,0.0010253308145840702
46.84506875911067,16.829744163702017,0.004925756647601502,0.010857723433241009,0.04421041094640059,0.12795216517383037,0.06473160614643461,0.08573756586677062,0.041586027698336935,0.09644291804970896,0.046069466926331376,0.027979784377130133,0.0009108372730380163,0.0010253308145840702
46.84509186825026,16.82972466732672,0.004925756647601502,0.010857723433241009,0.04421041094640059,0.12795216517383037,0.06473160614643461,0.08573756586677062,0.041586027698336935,0.09644291804970896,0.046069466926331376,0.027979784377130133,0.0009108372730380163,0.0010253308145840702
46.845132027762595,16.829690551295265,0.004925756647601502,0.010857723433241009,0.04421041094640059,0.12795216517383037,0.06473160614643461,0.08573756586677062,0.041586027698336935,0.09644291804970896,0.046069466926331376,0.027979784377130133,0.0009108372730380163,0.0010253308145840702
46.84515626835672,16.829669634914286,0.004925756647601502,0.010857723433241009,0.04421041094640059,0.12795216517383037,0.06473160614643461,0.08573756586677062,0.041586027698336935,0.09644291804970896,0.046069466926331376,0.027979784377130133,0.0009108372730380163,0.0010253308145840702
46.84519529621511,16.82963468653664,0.018936786413272216,0.0738507790219873,0.044707602478455635,0.056016021774422844,0.02536289152583764,0.06638195289222242,0.11284813615548583,0.23438176489803916,0.04154324345058958,0.1096211593436513,0.0007808749436554027,0.0022956892385163053
46.845224099927435,16.829608038663327,0.018936786413272216,0.0738507790219873,0.044707602478455635,0.056016021774422844,0.02536289152583764,0.06638195289222242,0.11284813615548583,0.23438176489803916,0.04154324345058958,0.1096211593436513,0.0007808749436554027,0.0022956892385163053
46.84526544501549,16.829566098164953,0.018936786413272216,0.0738507790219873,0.044707602478455635,0.056016021774422844,0.02536289152583764,0.06638195289222242,0.11284813615548583,0.23438176489803916,0.04154324345058958,0.1096211593436513,0.0007808749436554027,0.0022956892385163053
46.84530019007517,16.829525662211477,0.018936786413272216,0.0738507790219873,0.044707602478455635,0.056016021774422844,0.02536289152583764,0.06638195289222242,0.11284813615548583,0.23438176489803916,0.04154324345058958,0.1096211593436513,0.0007808749436554027,0.0022956892385163053
46.845319115015386,16.829501259566932,0.018936786413272216,0.0738507790219873,0.044707602478455635,0.056016021774422844,0.02536289152583764,0.06638195289222242,0.11284813615548583,0.23438176489803916,0.04154324345058958,0.1096211593436513,0.0007808749436554027,0.0022956892385163053
46.845364586362756,16.829447892219832,0.032054309861446195,0.030466625548751482,0.016832119422859098,0.04318584346273757,0.05966544842538218,0.0863825725220755,0.08434931204017053,0.09326418024631429,0.032312170159217314,0.08008948218645964,0.0028074951488415343,0.0037740209200343247
46.845383438304275,16.82942798465573,0.032054309861446195,0.030466625548751482,0.016832119422859098,0.04318584346273757,0.05966544842538218,0.0863825725220755,0.08434931204017053,0.09326418024631429,0.032312170159217314,0.08008948218645964,0.0028074951488415343,0.0037740209200343247
46.84543214639825,16.82938174001915,0.032054309861446195,0.030466625548751482,0.016832119422859098,0.04318584346273757,0.05966544842538218,0.0863825725220755,0.08434931204017053,0.09326418024631429,0.032312170159217314,0.08008948218645964,0.0028074951488415343,0.0037740209200343247
46.84545835115359,16.82935712850661,0.032054309861446195,0.030466625548751482,0.016832119422859098,0.04318584346273757,0.05966544842538218,0.0863825725220755,0.08434931204017053,0.09326418024631429,0.032312170159217314,0.08008948218645964,0.0028074951488415343,0.0037740209200343247
46.84548204078977,16.82933487919465,0.032054309861446195,0.030466625548751482,0.016832119422859098,0.04318584346273757,0.05966544842538218,0.0863825725220755,0.08434931204017053,0.09326418024631429,0.032312170159217314,0.08008948218645964,0.0028074951488415343,0.0037740209200343247
46.84549236790575,16.829325019626523,0.03169455858886713,0.025301205416889225,0.03748738143856191,0.056848016079936184,0.11009199521457055,0.0699646058555669,0.7227191460162661,0.6562777884020369,0.05485031068744748,0.0812606299590877,0.010723865625740478,0.001762042149783255
46.84552136062168,16.829298256270587,0.03169455858886713,0.025301205416889225,0.03748738143856191,0.056848016079936184,0.11009199521457055,0.0699646058555669,0.7227191460162661,0.6562777884020369,0.05485031068744748,0.0812606299590877,0.010723865625740478,0.001762042149783255
46.845569745018224,16.829258636160592,0.03169455858886713,0.025301205416889225,0.03748738143856191,0.056848016079936184,0.11009199521457055,0.0699646058555669,0.7227191460162661,0.6562777884020369,0.05485031068744748,0.0812606299590877,0.010723865625740478,0.001762042149783255
46.84559550798723,16.829239695615346,0.03169455858886713,0.025301205416889225,0.03748738143856191,0.056848016079936184,0.11009199521457055,0.0699646058555669,0.7227191460162661,0.6562777884020369,0.05485031068744748,0.0812606299590877,0.010723865625740478,0.001762042149783255
46.84564119374842,16.829203986242696,0.03169455858886713,0.025301205416889225,0.03748738143856191,0.056848016079936184,0.11009199521457055,0.0699646058555669,0.7227191460162661,0.6562777884020369,0.05485031068744748,0.0812606299590877,0.010723865625740478,0.001762042149783255
46.84566444734587,16.829179896350936,0.026861861205318645,0.03492270589446705,0.018356673230057782,0.01541685146499867,0.1802393631961699,0.014139553236471614,0.12837234045193044,0.06585183899270276,0.07425618690319616,0.051411612392372005,0.004211865502721688,0.004171139942602298
46.84568795635212,16.829151105296173,0.026861861205318645,0.03492270589446705,0.018356673230057782,0.01541685146499867,0.1802393631961699,0.014139553236471614,0.12837234045193044,0.06585183899270276,0.07425618690319616,0.051411612392372005,0.004211865502721688,0.004171139942602298
46.84571907800434,16.829109909105256,0.026861861205318645,0.03492270589446705,0.018356673230057782,0.01541685146499867,0.1802393631961699,0.014139553236471614,0.12837234045193044,0.06585183899270276,0.07425618690319616,0.051411612392372005,0.004211865502721688,0.004171139942602298
46.84575215804532,16.82907139996577,0.026861861205318645,0.03492270589446705,0.018356673230057782,0.01541685146499867,0.1802393631961699,0.014139553236471614,0.12837234045193044,0.06585183899270276,0.07425618690319616,0.051411612392372005,0.004211865502721688,0.004171139942602298
46.845789032219905,16.829035276530824,0.026861861205318645,0.03492270589446705,0.018356673230057782,0.01541685146499867,0.1802393631961699,0.014139553236471614,0.12837234045193044,0.06585183899270276,0.07425618690319616,0.051411612392372005,0.004211865502721688,0.004171139942602298
46.845815447489144,16.82901068272689,0.06783670966130904,0.1713295467913109,0.04677937969751573,0.09854642060233249,0.140435570598354,0.2772639374706953,0.32006047001910737,0.5328530038795304,0.04127040224438097,0.16899238939999495,0.010133391503484569,0.010388270308129407
46.84584146869175,16.82898611964613,0.06783670966130904,0.1713295467913109,0.04677937969751573,0.09854642060233249,0.140435570598354,0.2772639374706953,0.32006047001910737,0.5328530038795304,0.04127040224438097,0.16899238939999495,0.010133391503484569,0.010388270308129407
46.84587246593512,16.828956430372088,0.06783670966130904,0.1713295467913109,0.04677937969751573,0.09854642060233249,0.140435570598354,0.2772639374706953,0.32006047001910737,0.5328530038795304,0.04127040224438097,0.16899238939999495,0.010133391503484569,0.010388270308129407
46.8459062629721,16.828923800764734,0.06783670966130904,0.1713295467913109,0.04677937969751573,0.09854642060233249,0.140435570598354,0.2772639374706953,0.32006047001910737,0.5328530038795304,0.04127040224438097,0.16899238939999495,0.010133391503484569,0.010388270308129407
46.845934152305546,16.828896884313853,0.06783670966130904,0.1713295467913109,0.04677937969751573,0.09854642060233249,0.140435570598354,0.2772639374706953,0.32006047001910737,0.5328530038795304,0.04127040224438097,0.16899238939999495,0.010133391503484569,0.010388270308129407
46.84597205006888,16.828860329703176,0.050972256547697645,0.012931862715631227,0.05746864048094473,0.06189416051190123,0.10083522902225406,0.0271945358571534,0.14128200745366523,0.13589349410724091,0.05111002917997356,0.032712758626729344,0.0013534526715439268,0.0021406160309141125
46.84600222606141,16.828831449213283,0.050972256547697645,0.012931862715631227,0.05746864048094473,0.06189416051190123,0.10083522902225406,0.0271945358571534,0.14128200745366523,0.13589349410724091,0.05111002917997356,0.032712758626729344,0.0013534526715439268,0.0021406160309141125
46.846036710544375,16.82879879429035,0.050972256547697645,0.012931862715631227,0.05746864048094473,0.06189416051190123,0.10083522902225406,0.0271945358571534,0.14128200745366523,0.13589349410724091,0.05111002917997356,0.032712758626729344,0.0013534526715439268,0.0021406160309141125
46.8460690674512,16.828768534692916,0.050972256547697645,0.012931862715631227,0.05746864048094473,0.06189416051190123,0.10083522902225406,0.0271945358571534,0.14128200745366523,0.13589349410724091,0.05111002917997356,0.032712758626729344,0.0013534526715439268,0.0021406160309141125
46.84609840953662,16.828741934400803,0.050972256547697645,0.012931862715631227,0.05746864048094473,0.06189416051190123,0.10083522902225406,0.0271945358571534,0.14128200745366523,0.13589349410724091,0.05111002917997356,0.032712758626729344,0.0013534526715439268,0.0021406160309141125
46.846123723324794,16.828719737605358,0.015586203132828779,0.0218823403628917,0.04597957573854997,0.04515426974875664,0.15142433506571848,0.07091838726660094,0.15119022973064628,0.1224122924736322,0.19047148691884366,0.0508415300512404,0.0010488227034621575,0.0006241565752483367
46.846162297846554,16.828687199794214,0.015586203132828779,0.0218823403628917,0.04597957573854997,0.04515426974875664,0.15142433506571848,0.07091838726660094,0.15119022973064628,0.1224122924736322,0.19047148691884366,0.0508415300512404,0.0010488227034621575,0.0006241565752483367
46.846185286894524,16.828667463027973,0.015586203132828779,0.0218823403628917,0.04597957573854997,0.04515426974875664,0.15142433506571848,0.07091838726660094,0.15119022973064628,0.1224122924736322,0.19047148691884366,0.0508415300512404,0.0010488227034621575,0.0006241565752483367
46.846217193557,16.828638832814207,0.015586203132828779,0.0218823403628917,0.04597957573854997,0.04515426974875664,0.15142433506571848,0.07091838726660094,0.15119022973064628,0.1224122924736322,0.19047148691884366,0.0508415300512404,0.0010488227034621575,0.0006241565752483367
46.84624341484005,16.8286142197196,0.015586203132828779,0.0218823403628917,0.04597957573854997,0.04515426974875664,0.15142433506571848,0.07091838726660094,0.15119022973064628,0.1224122924736322,0.19047148691884366,0.0508415300512404,0.0010488227034621575,0.0006241565752483367
46.84628163076818,16.82857756537375,0.0342612006648844,0.030344241509966948,0.018515809288981205,0.040570654926452995,0.06825126260938211,0.0887726712687602,0.6699271024254457,1.0230549105927733,0.09369051051440017,0.08024871754963567,0.0012382571288257504,0.0017701338347074107
46.84630887956507,16.82855207406909,0.0342612006648844,0.030344241509966948,0.018515809288981205,0.040570654926452995,0.06825126260938211,0.0887726712687602,0.6699271024254457,1.0230549105927733,0.09369051051440017,0.08024871754963567,0.0012382571288257504,0.0017701338347074107
46.84633384236605,16.828529219089155,0.0342612006648844,0.030344241509966948,0.018515809288981205,0.040570654926452995,0.06825126260938211,0.0887726712687602,0.6699271024254457,1.0230549105927733,0.09369051051440017,0.08024871754963567,0.0012382571288257504,0.0017701338347074107
46.846361205683245,16.82850470266964,0.0342612006648844,0.030344241509966948,0.018515809288981205,0.040570654926452995,0.06825126260938211,0.0887726712687602,0.6699271024254457,1.0230549105927733,0.09369051051440017,0.08024871754963567,0.0012382571288257504,0.0017701338347074107
46.84639521610431,16.82847505276442,0.0342612006648844,0.030344241509966948,0.018515809288981205,0.040570654926452995,0.06825126260938211,0.0887726712687602,0.6699271024254457,1.0230549105927733,0.09369051051440017,0.08024871754963567,0.0012382571288257504,0.0017701338347074107
46.846419052100856,16.8284548344239,0.005053890517222379,0.023534115888438567,0.005741211257367498,0.020522505618003724,0.03750003305079334,0.09769825590157595,0.14422828794784034,0.658144290294032,0.015497587591318668,0.04217952571368794,0.0007698143998406399,0.000812498843958322
46.846453690683944,16.82842631287269,0.005053890517222379,0.023534115888438567,0.005741211257367498,0.020522505618003724,0.03750003305079334,0.09769825590157595,0.14422828794784034,0.658144290294032,0.015497587591318668,0.04217952571368794,0.0007698143998406399,0.000812498843958322
46.84647690572341,16.82840731997962,0.005053890517222379,0.023534115888438567,0.005741211257367498,0.020522505618003724,0.03750003305079334,0.09769825590157595,0.14422828794784034,0.658144290294032,0.015497587591318668,0.04217952571368794,0.0007698143998406399,0.000812498843958322
46.8465076878821,16.828381536889232,0.005053890517222379,0.023534115888438567,0.005741211257367498,0.020522505618003724,0.03750003305079334,0.09769825590157595,0.14422828794784034,0.658144290294032,0.015497587591318668,0.04217952571368794,0.0007698143998406399,0.000812498843958322
46.846534183860975,16.828358787343063,0.005053890517222379,0.023534115888438567,0.005741211257367498,0.020522505618003724,0.03750003305079334,0.09769825590157595,0.14422828794784034,0.658144290294032,0.015497587591318668,0.04217952571368794,0.0007698143998406399,0.000812498843958322
46.84657173786628,16.82832548278325,0.007991071438479077,0.012067833872631883,0.009211939144235935,0.011125519802699397,0.03108634170819788,0.02804538329158974,0.07469370173349933,0.09632723127414924,0.023772112735525316,0.015114245833654037,0.001172344375713326,0.0011146906367043062
46.846581749870836,16.82831636191612,0.007991071438479077,0.012067833872631883,0.009211939144235935,0.011125519802699397,0.03108634170819788,0.02804538329158974,0.07469370173349933,0.09632723127414924,0.023772112735525316,0.015114245833654037,0.001172344375713326,0.0011146906367043062
46.846606899532674,16.828292707887996,0.007991071438479077,0.012067833872631883,0.009211939144235935,0.011125519802699397,0.03108634170819788,0.02804538329158974,0.07469370173349933,0.09632723127414924,0.023772112735525316,0.015114245833654037,0.001172344375713326,0.0011146906367043062
46.84665396927071,16.828246459902648,0.007991071438479077,0.012067833872631883,0.009211939144235935,0.011125519802699397,0.03108634170819788,0.02804538329158974,0.07469370173349933,0.09632723127414924,0.023772112735525316,0.015114245833654037,0.001172344375713326,0.0011146906367043062
46.84668909799909,16.828213430826132,0.007991071438479077,0.012067833872631883,0.009211939144235935,0.011125519802699397,0.03108634170819788,0.02804538329158974,0.07469370173349933,0.09632723127414924,0.023772112735525316,0.015114245833654037,0.001172344375713326,0.0011146906367043062
46.84673471288884,16.82817325283738,0.05084686028207182,0.025098549732294462,0.021875480736968593,0.0642318130389085,0.08696061282128636,0.11406171659009588,0.3114835879919967,0.16886041249842487,0.037346618385752546,0.06845544863516068,0.009864348442134982,0.001154081932000011
46.84676950902825,16.828142399819203,0.05084686028207182,0.025098549732294462,0.021875480736968593,0.0642318130389085,0.08696061282128636,0.11406171659009588,0.3114835879919967,0.16886041249842487,0.037346618385752546,0.06845544863516068,0.009864348442134982,0.001154081932000011
46.8467873156864,16.828126370452424,0.05084686028207182,0.025098549732294462,0.021875480736968593,0.0642318130389085,0.08696061282128636,0.11406171659009588,0.3114835879919967,0.16886041249842487,0.037346618385752546,0.06845544863516068,0.009864348442134982,0.001154081932000011
46.846836478542066,16.828081020281708,0.05084686028207182,0.025098549732294462,0.021875480736968593,0.0642318130389085,0.08696061282128636,0.11406171659009588,0.3114835879919967,0.16886041249842487,0.037346618385752546,0.06845544863516068,0.009864348442134982,0.001154081932000011
46.84687252015178,16.828047077214364,0.05084686028207182,0.025098549732294462,0.021875480736968593,0.0642318130389085,0.08696061282128636,0.11406171659009588,0.3114835879919967,0.16886041249842487,0.037346618385752546,0.06845544863516068,0.009864348442134982,0.001154081932000011
46.846911675975974,16.82800918166018,0.029024748183620937,0.030653490432372286,0.1937170612693542,0.06225233806826683,0.06888674947751368,0.17095855185593115,0.15341943525849888,0.2301404306905321,0.041816650489127645,0.054484431225828626,0.0031245227982800686,0.002038689192734087
46.84693073525422,16.82799017621077,0.029024748183620937,0.030653490432372286,0.1937170612693542,0.06225233806826683,0.06888674947751368,0.17095855185593115,0.15341943525849888,0.2301404306905321,0.041816650489127645,0.054484431225828626,0.0031245227982800686,0.002038689192734087
46.846973029999454,16.82794642080608,0.029024748183620937,0.030653490432372286,0.1937170612693542,0.06225233806826683,0.06888674947751368,0.17095855185593115,0.15341943525849888,0.2301404306905321,0.041816650489127645,0.054484431225828626,0.0031245227982800686,0.002038689192734087
46.84700723454037,16.827911972632513,0.029024748183620937,0.030653490432372286,0.1937170612693542,0.06225233806826683,0.06888674947751368,0.17095855185593115,0.15341943525849888,0.2301404306905321,0.041816650489127645,0.054484431225828626,0.0031245227982800686,0.002038689192734087
46.847031553137505,16.827888618154265,0.029024748183620937,0.030653490432372286,0.1937170612693542,0.06225233806826683,0.06888674947751368,0.17095855185593115,0.15341943525849888,0.2301404306905321,0.041816650489127645,0.054484431225828626,0.0031245227982800686,0.002038689192734087
46.84708393993098,16.827840569686614,0.0375793864675761,0.03807878431800903,0.15576581571230802,0.17581180566802165,0.02335109194410062,0.06439099843243026,0.14464437763256874,0.11583531685519255,0.051504054482923195,0.09108066968103432,0.020084739499424745,0.002407092856585988
46.847124947352576,16.827803011149204,0.0375793864675761,0.03807878431800903,0.15576581571230802,0.17581180566802165,0.02335109194410062,0.06439099843243026,0.14464437763256874,0.11583531685519255,0.051504054482923195,0.09108066968103432,0.020084739499424745,0.002407092856585988
46.847162017137876,16.827768671344575,0.0375793864675761,0.03807878431800903,0.15576581571230802,0.17581180566802165,0.02335109194410062,0.06439099843243026,0.14464437763256874,0.11583531685519255,0.051504054482923195,0.09108066968103432,0.020084739499424745,0.002407092856585988
46.84720911153655,16.827724629203264,0.0375793864675761,0.03807878431800903,0.15576581571230802,0.17581180566802165,0.02335109194410062,0.06439099843243026,0.14464437763256874,0.11583531685519255,0.051504054482923195,0.09108066968103432,0.020084739499424745,0.002407092856585988
46.84726980527054,16.827676289141998,0.0375793864675761,0.03807878431800903,0.15576581571230802,0.17581180566802165,0.02335109194410062,0.06439099843243026,0.14464437763256874,0.11583531685519255,0.051504054482923195,0.09108066968103432,0.020084739499424745,0.002407092856585988
46.84733628408513,16.827627392242775,0.017677820208097713,0.03807878431800903,0.2944214411051416,0.15990970079360722,0.11902865619094648,0.11559616108946397,0.05305532712914462,0.17494681476908103,0.06156353926250584,0.16385963675419674,0.005016132567345526,0.002407092856585988
46.84739674572419,16.827703858026837,0.017677820208097713,0.03807878431800903,0.2944214411051416,0.15990970079360722,0.11902865619094648,0.11559616108946397,0.05305532712914462,0.17494681476908103,0.06156353926250584,0.16385963675419674,0.005016132567345526,0.002407092856585988
46.847473379987974,16.82783967037571,0.017677820208097713,0.03807878431800903,0.2944214411051416,0.15990970079360722,0.11902865619094648,0.11559616108946397,0.05305532712914462,0.17494681476908103,0.06156353926250584,0.16385963675419674,0.005016132567345526,0.002407092856585988
46.84744030467133,16.828167354850653,0.017677820208097713,0.03807878431800903,0.2944214411051416,0.15990970079360722,0.11902865619094648,0.11559616108946397,0.05305532712914462,0.17494681476908103,0.06156353926250584,0.16385963675419674,0.005016132567345526,0.002407092856585988
46.84738148922085,16.828499647156573,0.017677820208097713,0.03807878431800903,0.2944214411051416,0.15990970079360722,0.11902865619094648,0.11559616108946397,0.05305532712914462,0.17494681476908103,0.06156353926250584,0.16385963675419674,0.005016132567345526,0.002407092856585988
46.84732861163083,16.828851738508703,0.012971950766847483,0.0800573110048145,0.019862728088676822,0.12218375416786029,0.06020318511542087,0.061409521115310374,0.1572885334657605,0.24564164654002932,0.09364995690681865,0.16707129257699083,0.005301347658512046,0.011980468405671529
46.84726994816192,16.829103484670703,0.012971950766847483,0.0800573110048145,0.019862728088676822,0.12218375416786029,0.06020318511542087,0.061409521115310374,0.1572885334657605,0.24564164654002932,0.09364995690681865,0.16707129257699083,0.005301347658512046,0.011980468405671529
46.84718009521911,16.829581211235393,0.012971950766847483,0.0800573110048145,0.019862728088676822,0.12218375416786029,0.06020318511542087,0.061409521115310374,0.1572885334657605,0.24564164654002932,0.09364995690681865,0.16707129257699083,0.005301347658512046,0.011980468405671529
46.84709812042823,16.830076584889575,0.012971950766847483,0.0800573110048145,0.019862728088676822,0.12218375416786029,0.06020318511542087,0.061409521115310374,0.1572885334657605,0.24564164654002932,0.09364995690681865,0.16707129257699083,0.005301347658512046,0.011980468405671529
46.84703697218843,16.830485860222026,0.012971950766847483,0.0800573110048145,0.019862728088676822,0.12218375416786029,0.06020318511542087,0.061409521115310374,0.1572885334657605,0.24564164654002932,0.09364995690681865,0.16707129257699083,0.005301347658512046,0.011980468405671529
46.846978158081,16.830936117809426,0.019715393669549566,0.03272635339259492,0.028323572963303296,0.01860593361099522,0.02709074270171847,0.046934446414386356,0.2564185637785514,0.3009634948935428,0.0657202281505179,0.05010602667071149,0.0036199590561024216,0.0013802467510811583
46.84691643269402,16.83142228223848,0.019715393669549566,0.03272635339259492,0.028323572963303296,0.01860593361099522,0.02709074270171847,0.046934446414386356,0.2564185637785514,0.3009634948935428,0.0657202281505179,0.05010602667071149,0.0036199590561024216,0.0013802467510811583
46.846889273745155,16.831459412504614,0.019715393669549566,0.03272635339259492,0.028323572963303296,0.01860593361099522,0.02709074270171847,0.046934446414386356,0.2564185637785514,0.3009634948935428,0.0657202281505179,0.05010602667071149,0.0036199590561024216,0.0013802467510811583
46.84686399859996,16.831481449070658,0.019715393669549566,0.03272635339259492,0.028323572963303296,0.01860593361099522,0.02709074270171847,0.046934446414386356,0.2564185637785514,0.3009634948935428,0.0657202281505179,0.05010602667071149,0.0036199590561024216,0.0013802467510811583
46.84683789748896,16.83149862675636,0.019715393669549566,0.03272635339259492,0.028323572963303296,0.01860593361099522,0.02709074270171847,0.046934446414386356,0.2564185637785514,0.3009634948935428,0.0657202281505179,0.05010602667071149,0.0036199590561024216,0.0013802467510811583
46.84681128568873,16.831514682880503,0.01727245042465071,0.05787054503739633,0.04192006939052983,0.06074462771707895,0.07466647894579295,0.10912481823408804,0.10668404564342496,0.2566509599532039,0.05528705079321256,0.10459775937414324,0.007918995764490806,0.009557189678492017
46.84678424828551,16.831535527268315,0.01727245042465071,0.05787054503739633,0.04192006939052983,0.06074462771707895,0.07466647894579295,0.10912481823408804,0.10668404564342496,0.2566509599532039,0.05528705079321256,0.10459775937414324,0.007918995764490806,0.009557189678492017
46.84675015378616,16.831577190255334,0.01727245042465071,0.05787054503739633,0.04192006939052983,0.06074462771707895,0.07466647894579295,0.10912481823408804,0.10668404564342496,0.2566509599532039,0.05528705079321256,0.10459775937414324,0.007918995764490806,0.009557189678492017
46.846688672214455,16.831945455768846,0.01727245042465071,0.05787054503739633,0.04192006939052983,0.06074462771707895,0.07466647894579295,0.10912481823408804,0.10668404564342496,0.2566509599532039,0.05528705079321256,0.10459775937414324,0.007918995764490806,0.009557189678492017
46.84663031825924,16.832357829240827,0.01727245042465071,0.05787054503739633,0.04192006939052983,0.06074462771707895,0.07466647894579295,0.10912481823408804,0.10668404564342496,0.2566509599532039,0.05528705079321256,0.10459775937414324,0.007918995764490806,0.009557189678492017
46.846599195506684,16.83257776630212,0.009910581442183626,0.0180248531007037,0.46234695029650297,0.6273413267838798,0.03045068423690168,0.039459384001137354,0.054404271607076116,0.09618729497495984,0.02526860940775352,0.05672196198653031,0.0026427950751065914,0.001816011700042049
46.84658877517211,16.83265140431497,0.009910581442183626,0.0180248531007037,0.46234695029650297,0.6273413267838798,0.03045068423690168,0.039459384001137354,0.054404271607076116,0.09618729497495984,0.02526860940775352,0.05672196198653031,0.0026427950751065914,0.001816011700042049
46.846580139711826,16.832712429057974,0.009910581442183626,0.0180248531007037,0.46234695029650297,0.6273413267838798,0.03045068423690168,0.039459384001137354,0.054404271607076116,0.09618729497495984,0.02526860940775352,0.05672196198653031,0.0026427950751065914,0.001816011700042049
46.84655028439442,16.832923409544932,0.009910581442183626,0.0180248531007037,0.46234695029650297,0.6273413267838798,0.03045068423690168,0.039459384001137354,0.054404271607076116,0.09618729497495984,0.02526860940775352,0.05672196198653031,0.0026427950751065914,0.001816011700042049
46.846556815902616,16.83312249140271,0.009910581442183626,0.0180248531007037,0.46234695029650297,0.6273413267838798,0.03045068423690168,0.039459384001137354,0.054404271607076116,0.09618729497495984,0.02526860940775352,0.05672196198653031,0.0026427950751065914,0.001816011700042049
46.84658089273447,16.833150261292044,0.03198154732681523,0.061560715725884216,0.009453032655966935,0.021333466434392562,0.040668637019288356,0.15748332170686805,0.1767704194254727,0.11665989709941671,0.06660739247037216,0.1216478429509126,0.0005406320477005285,0.0014759157426503693
46.84660649643544,16.833175148672126,0.03198154732681523,0.061560715725884216,0.009453032655966935,0.021333466434392562,0.040668637019288356,0.15748332170686805,0.1767704194254727,0.11665989709941671,0.06660739247037216,0.1216478429509126,0.0005406320477005285,0.0014759157426503693
46.84663250475085,16.833197873791548,0.03198154732681523,0.061560715725884216,0.009453032655966935,0.021333466434392562,0.040668637019288356,0.15748332170686805,0.1767704194254727,0.11665989709941671,0.06660739247037216,0.1216478429509126,0.0005406320477005285,0.0014759157426503693
46.84665948650909,16.833220681996945,0.03198154732681523,0.061560715725884216,0.009453032655966935,0.021333466434392562,0.040668637019288356,0.15748332170686805,0.1767704194254727,0.11665989709941671,0.06660739247037216,0.1216478429509126,0.0005406320477005285,0.0014759157426503693
46.846686042723555,16.833245577060048,0.03198154732681523,0.061560715725884216,0.009453032655966935,0.021333466434392562,0.040668637019288356,0.15748332170686805,0.1767704194254727,0.11665989709941671,0.06660739247037216,0.1216478429509126,0.0005406320477005285,0.0014759157426503693
46.84671308300045,16.83327552257863,0.019612013608460308,0.027291435569785406,0.13651873023337777,0.2583115965374419,0.023090878831976934,0.060239384334285544,0.01800448473538997,0.14324824611531545,0.017805318903373665,0.09777536256330012,0.0056565136403740265,0.0069324767013829395
46.846748434439114,16.833345264363842,0.019612013608460308,0.027291435569785406,0.13651873023337777,0.2583115965374419,0.023090878831976934,0.060239384334285544,0.01800448473538997,0.14324824611531545,0.017805318903373665,0.09777536256330012,0.0056565136403740265,0.0069324767013829395
46.84671267504046,16.833757688287516,0.019612013608460308,0.027291435569785406,0.13651873023337777,0.2583115965374419,0.023090878831976934,0.060239384334285544,0.01800448473538997,0.14324824611531545,0.017805318903373665,0.09777536256330012,0.0056565136403740265,0.0069324767013829395
46.84666762478945,16.8342028533733,0.019612013608460308,0.027291435569785406,0.13651873023337777,0.2583115965374419,0.023090878831976934,0.060239384334285544,0.01800448473538997,0.14324824611531545,0.017805318903373665,0.09777536256330012,0.0056565136403740265,0.0069324767013829395
46.84661082868359,16.834779045337722,0.019612013608460308,0.027291435569785406,0.13651873023337777,0.2583115965374419,0.023090878831976934,0.060239384334285544,0.01800448473538997,0.14324824611531545,0.017805318903373665,0.09777536256330012,0.0056565136403740265,0.0069324767013829395
46.84656253178002,16.835244827290744,0.03660062639516052,0.07466799126422702,0.010997544975541411,0.09616067627174328,0.014195465642341568,0.06437192988099891,0.06836150015674422,0.19819634753533386,0.015335841406615203,0.07678912564303667,0.008364062629850162,0.005890393248720319
46.84652718861267,16.835680356166012,0.03660062639516052,0.07466799126422702,0.010997544975541411,0.09616067627174328,0.014195465642341568,0.06437192988099891,0.06836150015674422,0.19819634753533386,0.015335841406615203,0.07678912564303667,0.008364062629850162,0.005890393248720319
46.846455524735845,16.836194405307776,0.03660062639516052,0.07466799126422702,0.010997544975541411,0.09616067627174328,0.014195465642341568,0.06437192988099891,0.06836150015674422,0.19819634753533386,0.015335841406615203,0.07678912564303667,0.008364062629850162,0.005890393248720319
46.8463993046823,16.836743674783047,0.03660062639516052,0.07466799126422702,0.010997544975541411,0.09616067627174328,0.014195465642341568,0.06437192988099891,0.06836150015674422,0.19819634753533386,0.015335841406615203,0.07678912564303667,0.008364062629850162,0.005890393248720319
46.84635795768761,16.837075088870954,0.03660062639516052,0.07466799126422702,0.010997544975541411,0.09616067627174328,0.014195465642341568,0.06437192988099891,0.06836150015674422,0.19819634753533386,0.015335841406615203,0.07678912564303667,0.008364062629850162,0.005890393248720319
46.84627855480175,16.837656275622173,0.027386861680694884,0.038266949456232054,0.048342538881308336,0.1647998529419642,0.023278000953756456,0.07409090172888863,0.07007841583500542,0.15878093374323674,0.03252817494652236,0.05970393029328307,0.0018923101095720844,0.004104847401617996
46.84622400712909,16.838143023424006,0.027386861680694884,0.038266949456232054,0.048342538881308336,0.1647998529419642,0.023278000953756456,0.07409090172888863,0.07007841583500542,0.15878093374323674,0.03252817494652236,0.05970393029328307,0.0018923101095720844,0.004104847401617996
46.846171914903415,16.83857936464511,0.027386861680694884,0.038266949456232054,0.048342538881308336,0.1647998529419642,0.023278000953756456,0.07409090172888863,0.07007841583500542,0.15878093374323674,0.03252817494652236,0.05970393029328307,0.0018923101095720844,0.004104847401617996
46.846101827290624,16.839086714153943,0.027386861680694884,0.038266949456232054,0.048342538881308336,0.1647998529419642,0.023278000953756456,0.07409090172888863,0.07007841583500542,0.15878093374323674,0.03252817494652236,0.05970393029328307,0.0018923101095720844,0.004104847401617996
46.846046326272074,16.839524615254216,0.027386861680694884,0.038266949456232054,0.048342538881308336,0.1647998529419642,0.023278000953756456,0.07409090172888863,0.07007841583500542,0.15878093374323674,0.03252817494652236,0.05970393029328307,0.0018923101095720844,0.004104847401617996
