lat,lon,std_acc_x,median_acc_x,std_acc_y,median_acc_y,std_acc_z,median_acc_z,std_gyr_x,median_gyr_x,std_gyr_y,median_gyr_y,std_gyr_z,median_gyr_z
46.840988943063905,16.86245549060346,0.004097366325713775,0.019202897289684846,0.12195241009819441,0.08954287614464168,0.005353303574087593,0.029430831690739408,0.02161021688792556,0.010826574827802748,0.017029379169126006,0.04441323040851933,0.00015874243812170018,0.0005830419170494626
46.84095643675841,16.862461661068203,0.004097366325713775,0.019202897289684846,0.12195241009819441,0.08954287614464168,0.005353303574087593,0.029430831690739408,0.02161021688792556,0.010826574827802748,0.017029379169126006,0.04441323040851933,0.00015874243812170018,0.0005830419170494626
46.840922816775475,16.86246752142756,0.004097366325713775,0.019202897289684846,0.12195241009819441,0.08954287614464168,0.005353303574087593,0.029430831690739408,0.02161021688792556,0.010826574827802748,0.017029379169126006,0.04441323040851933,0.00015874243812170018,0.0005830419170494626
46.8408911514768,16.86247223503982,0.004097366325713775,0.019202897289684846,0.12195241009819441,0.08954287614464168,0.005353303574087593,0.029430831690739408,0.02161021688792556,0.010826574827802748,0.017029379169126006,0.04441323040851933,0.00015874243812170018,0.0005830419170494626
46.84086062616625,16.86247610702656,0.004097366325713775,0.019202897289684846,0.12195241009819441,0.08954287614464168,0.005353303574087593,0.029430831690739408,0.02161021688792556,0.010826574827802748,0.017029379169126006,0.04441323040851933,0.00015874243812170018,0.0005830419170494626
46.84083509008846,16.862479098548242,0.00832808202757702,0.01850152521887123,0.019755417064216418,0.012422808030352553,0.03583561639891954,0.02734016452099164,0.020856717098698286,0.021812688453003052,0.010189177246074705,0.02738679483154393,0.0014378384143017861,0.0003342589662848922
46.84080984192793,16.86248219721918,0.00832808202757702,0.01850152521887123,0.019755417064216418,0.012422808030352553,0.03583561639891954,0.02734016452099164,0.020856717098698286,0.021812688453003052,0.010189177246074705,0.02738679483154393,0.0014378384143017861,0.0003342589662848922
46.84077466004336,16.862486747004645,0.00832808202757702,0.01850152521887123,0.019755417064216418,0.012422808030352553,0.03583561639891954,0.02734016452099164,0.020856717098698286,0.021812688453003052,0.010189177246074705,0.02738679483154393,0.0014378384143017861,0.0003342589662848922
46.84075253936571,16.862489737685053,0.00832808202757702,0.01850152521887123,0.019755417064216418,0.012422808030352553,0.03583561639891954,0.02734016452099164,0.020856717098698286,0.021812688453003052,0.010189177246074705,0.02738679483154393,0.0014378384143017861,0.0003342589662848922
46.84072746418914,16.862493171356235,0.00832808202757702,0.01850152521887123,0.019755417064216418,0.012422808030352553,0.03583561639891954,0.02734016452099164,0.020856717098698286,0.021812688453003052,0.010189177246074705,0.02738679483154393,0.0014378384143017861,0.0003342589662848922
46.84069238911472,16.862497999373865,0.00832808202757702,0.01850152521887123,0.019755417064216418,0.012422808030352553,0.03583561639891954,0.02734016452099164,0.020856717098698286,0.021812688453003052,0.010189177246074705,0.02738679483154393,0.0014378384143017861,0.0003342589662848922
46.840673476190815,16.862500615996048,0.00832808202757702,0.01850152521887123,0.019755417064216418,0.012422808030352553,0.03583561639891954,0.02734016452099164,0.020856717098698286,0.021812688453003052,0.010189177246074705,0.02738679483154393,0.0014378384143017861,0.0003342589662848922
46.84064754375542,16.86250421707156,0.00832808202757702,0.01850152521887123,0.019755417064216418,0.012422808030352553,0.03583561639891954,0.02734016452099164,0.020856717098698286,0.021812688453003052,0.010189177246074705,0.02738679483154393,0.0014378384143017861,0.0003342589662848922
46.84061898106411,16.862508299428224,0.00832808202757702,0.01850152521887123,0.019755417064216418,0.012422808030352553,0.03583561639891954,0.02734016452099164,0.020856717098698286,0.021812688453003052,0.010189177246074705,0.02738679483154393,0.0014378384143017861,0.0003342589662848922
46.840591691971895,16.862512344144783,0.00832808202757702,0.01850152521887123,0.019755417064216418,0.012422808030352553,0.03583561639891954,0.02734016452099164,0.020856717098698286,0.021812688453003052,0.010189177246074705,0.02738679483154393,0.0014378384143017861,0.0003342589662848922
46.840565551241475,16.86251635320546,0.02751682682950243,0.05362973548138753,0.04379428225334426,0.06035758233595998,0.24750286214780337,0.16908989377977457,0.08350845687316787,0.09838790836412796,0.06468257213972141,0.09160709171170821,0.0004263378363445686,0.0006385273324310183
46.84053923039229,16.86252052613443,0.02751682682950243,0.05362973548138753,0.04379428225334426,0.06035758233595998,0.24750286214780337,0.16908989377977457,0.08350845687316787,0.09838790836412796,0.06468257213972141,0.09160709171170821,0.0004263378363445686,0.0006385273324310183
46.84051597472051,16.86252435208575,0.02751682682950243,0.05362973548138753,0.04379428225334426,0.06035758233595998,0.24750286214780337,0.16908989377977457,0.08350845687316787,0.09838790836412796,0.06468257213972141,0.09160709171170821,0.0004263378363445686,0.0006385273324310183
46.84048708542776,16.862529281807305,0.02751682682950243,0.05362973548138753,0.04379428225334426,0.06035758233595998,0.24750286214780337,0.16908989377977457,0.08350845687316787,0.09838790836412796,0.06468257213972141,0.09160709171170821,0.0004263378363445686,0.0006385273324310183
46.840461256681145,16.862533843797884,0.02751682682950243,0.05362973548138753,0.04379428225334426,0.06035758233595998,0.24750286214780337,0.16908989377977457,0.08350845687316787,0.09838790836412796,0.06468257213972141,0.09160709171170821,0.0004263378363445686,0.0006385273324310183
46.84043496783998,16.862538625275686,0.01682799073722503,0.013370266391550128,0.02290993366907544,0.019428681507523842,0.013533897011594059,0.024328714873813325,0.019042513581928083,0.01371254260438413,0.00811539094936326,0.017530234075084507,0.013116280633334103,0.00025364733015963674
46.840409523099034,16.862543325780848,0.01682799073722503,0.013370266391550128,0.02290993366907544,0.019428681507523842,0.013533897011594059,0.024328714873813325,0.019042513581928083,0.01371254260438413,0.00811539094936326,0.017530234075084507,0.013116280633334103,0.00025364733015963674
46.840383350638355,16.86254816170665,0.01682799073722503,0.013370266391550128,0.02290993366907544,0.019428681507523842,0.013533897011594059,0.024328714873813325,0.019042513581928083,0.01371254260438413,0.00811539094936326,0.017530234075084507,0.013116280633334103,0.00025364733015963674
46.840358863487054,16.86255268691588,0.01682799073722503,0.013370266391550128,0.02290993366907544,0.019428681507523842,0.013533897011594059,0.024328714873813325,0.019042513581928083,0.01371254260438413,0.00811539094936326,0.017530234075084507,0.013116280633334103,0.00025364733015963674
46.84033303937495,16.862557459953983,0.01682799073722503,0.013370266391550128,0.02290993366907544,0.019428681507523842,0.013533897011594059,0.024328714873813325,0.019042513581928083,0.01371254260438413,0.00811539094936326,0.017530234075084507,0.013116280633334103,0.00025364733015963674
46.84030643633142,16.862562382513023,0.01682799073722503,0.013370266391550128,0.02290993366907544,0.019428681507523842,0.013533897011594059,0.024328714873813325,0.019042513581928083,0.01371254260438413,0.00811539094936326,0.017530234075084507,0.013116280633334103,0.00025364733015963674
46.840279470519285,16.862567403698762,0.01682799073722503,0.013370266391550128,0.02290993366907544,0.019428681507523842,0.013533897011594059,0.024328714873813325,0.019042513581928083,0.01371254260438413,0.00811539094936326,0.017530234075084507,0.013116280633334103,0.00025364733015963674
46.840251663820766,16.862572615146064,0.01682799073722503,0.013370266391550128,0.02290993366907544,0.019428681507523842,0.013533897011594059,0.024328714873813325,0.019042513581928083,0.01371254260438413,0.00811539094936326,0.017530234075084507,0.013116280633334103,0.00025364733015963674
46.840224935617236,16.862577653318382,0.01682799073722503,0.013370266391550128,0.02290993366907544,0.019428681507523842,0.013533897011594059,0.024328714873813325,0.019042513581928083,0.01371254260438413,0.00811539094936326,0.017530234075084507,0.013116280633334103,0.00025364733015963674
46.840197191230615,16.862582913810122,0.01682799073722503,0.013370266391550128,0.02290993366907544,0.019428681507523842,0.013533897011594059,0.024328714873813325,0.019042513581928083,0.01371254260438413,0.00811539094936326,0.017530234075084507,0.013116280633334103,0.00025364733015963674
46.84017027213088,16.862588201698678,0.01682799073722503,0.013370266391550128,0.02290993366907544,0.019428681507523842,0.013533897011594059,0.024328714873813325,0.019042513581928083,0.01371254260438413,0.00811539094936326,0.017530234075084507,0.013116280633334103,0.00025364733015963674
46.84014186287358,16.862594075698755,0.01682799073722503,0.013370266391550128,0.02290993366907544,0.019428681507523842,0.013533897011594059,0.024328714873813325,0.019042513581928083,0.01371254260438413,0.00811539094936326,0.017530234075084507,0.013116280633334103,0.00025364733015963674
46.840115284411844,16.86259985314612,0.01682799073722503,0.013370266391550128,0.02290993366907544,0.019428681507523842,0.013533897011594059,0.024328714873813325,0.019042513581928083,0.01371254260438413,0.00811539094936326,0.017530234075084507,0.013116280633334103,0.00025364733015963674
46.84009054191886,16.862605484765798,0.01682799073722503,0.013370266391550128,0.02290993366907544,0.019428681507523842,0.013533897011594059,0.024328714873813325,0.019042513581928083,0.01371254260438413,0.00811539094936326,0.017530234075084507,0.013116280633334103,0.00025364733015963674
46.84006243251368,16.862612118156292,0.01682799073722503,0.013370266391550128,0.02290993366907544,0.019428681507523842,0.013533897011594059,0.024328714873813325,0.019042513581928083,0.01371254260438413,0.00811539094936326,0.017530234075084507,0.013116280633334103,0.00025364733015963674
46.840034534033656,16.862618572047946,0.01682799073722503,0.013370266391550128,0.02290993366907544,0.019428681507523842,0.013533897011594059,0.024328714873813325,0.019042513581928083,0.01371254260438413,0.00811539094936326,0.017530234075084507,0.013116280633334103,0.00025364733015963674
46.84000795769485,16.862624540553828,0.01682799073722503,0.013370266391550128,0.02290993366907544,0.019428681507523842,0.013533897011594059,0.024328714873813325,0.019042513581928083,0.01371254260438413,0.00811539094936326,0.017530234075084507,0.013116280633334103,0.00025364733015963674
46.83998153126742,16.862630296569897,0.01682799073722503,0.013370266391550128,0.02290993366907544,0.019428681507523842,0.013533897011594059,0.024328714873813325,0.019042513581928083,0.01371254260438413,0.00811539094936326,0.017530234075084507,0.013116280633334103,0.00025364733015963674
46.83995640333663,16.862635599627183,0.01682799073722503,0.013370266391550128,0.02290993366907544,0.019428681507523842,0.013533897011594059,0.024328714873813325,0.019042513581928083,0.01371254260438413,0.00811539094936326,0.017530234075084507,0.013116280633334103,0.00025364733015963674
46.8399187081017,16.862643334226888,0.01682799073722503,0.013370266391550128,0.02290993366907544,0.019428681507523842,0.013533897011594059,0.024328714873813325,0.019042513581928083,0.01371254260438413,0.00811539094936326,0.017530234075084507,0.013116280633334103,0.00025364733015963674
46.83990387276932,16.86264630361138,0.01682799073722503,0.013370266391550128,0.02290993366907544,0.019428681507523842,0.013533897011594059,0.024328714873813325,0.019042513581928083,0.01371254260438413,0.00811539094936326,0.017530234075084507,0.013116280633334103,0.00025364733015963674
46.839878924979274,16.86265123685036,0.01682799073722503,0.013370266391550128,0.02290993366907544,0.019428681507523842,0.013533897011594059,0.024328714873813325,0.019042513581928083,0.01371254260438413,0.00811539094936326,0.017530234075084507,0.013116280633334103,0.00025364733015963674
46.83985245745335,16.862656362573603,0.01682799073722503,0.013370266391550128,0.02290993366907544,0.019428681507523842,0.013533897011594059,0.024328714873813325,0.019042513581928083,0.01371254260438413,0.00811539094936326,0.017530234075084507,0.013116280633334103,0.00025364733015963674
46.83982696452258,16.862661231617395,0.01682799073722503,0.013370266391550128,0.02290993366907544,0.019428681507523842,0.013533897011594059,0.024328714873813325,0.019042513581928083,0.01371254260438413,0.00811539094936326,0.017530234075084507,0.013116280633334103,0.00025364733015963674
46.83980128490879,16.862666202408462,0.01682799073722503,0.013370266391550128,0.02290993366907544,0.019428681507523842,0.013533897011594059,0.024328714873813325,0.019042513581928083,0.01371254260438413,0.00811539094936326,0.017530234075084507,0.013116280633334103,0.00025364733015963674
46.83977393782997,16.862671583887913,0.01682799073722503,0.013370266391550128,0.02290993366907544,0.019428681507523842,0.013533897011594059,0.024328714873813325,0.019042513581928083,0.01371254260438413,0.00811539094936326,0.017530234075084507,0.013116280633334103,0.00025364733015963674
46.839749220744224,16.862676528961572,0.01682799073722503,0.013370266391550128,0.02290993366907544,0.019428681507523842,0.013533897011594059,0.024328714873813325,0.019042513581928083,0.01371254260438413,0.00811539094936326,0.017530234075084507,0.013116280633334103,0.00025364733015963674
46.83972184233228,16.862682091404853,0.01682799073722503,0.013370266391550128,0.02290993366907544,0.019428681507523842,0.013533897011594059,0.024328714873813325,0.019042513581928083,0.01371254260438413,0.00811539094936326,0.017530234075084507,0.013116280633334103,0.00025364733015963674
46.83969848345657,16.862686850295354,0.01682799073722503,0.013370266391550128,0.02290993366907544,0.019428681507523842,0.013533897011594059,0.024328714873813325,0.019042513581928083,0.01371254260438413,0.00811539094936326,0.017530234075084507,0.013116280633334103,0.00025364733015963674
46.83967262988442,16.86269211474171,0.01682799073722503,0.013370266391550128,0.02290993366907544,0.019428681507523842,0.013533897011594059,0.024328714873813325,0.019042513581928083,0.01371254260438413,0.00811539094936326,0.017530234075084507,0.013116280633334103,0.00025364733015963674
46.83964552017806,16.86269763166591,0.01682799073722503,0.013370266391550128,0.02290993366907544,0.019428681507523842,0.013533897011594059,0.024328714873813325,0.019042513581928083,0.01371254260438413,0.00811539094936326,0.017530234075084507,0.013116280633334103,0.00025364733015963674
46.83963094224902,16.862700531726187,0.01682799073722503,0.013370266391550128,0.02290993366907544,0.019428681507523842,0.013533897011594059,0.024328714873813325,0.019042513581928083,0.01371254260438413,0.00811539094936326,0.017530234075084507,0.013116280633334103,0.00025364733015963674
46.83957203771786,16.862714053694617,0.01682799073722503,0.013370266391550128,0.02290993366907544,0.019428681507523842,0.013533897011594059,0.024328714873813325,0.019042513581928083,0.01371254260438413,0.00811539094936326,0.017530234075084507,0.013116280633334103,0.00025364733015963674
46.839541755723126,16.86272231629098,0.01682799073722503,0.013370266391550128,0.02290993366907544,0.019428681507523842,0.013533897011594059,0.024328714873813325,0.019042513581928083,0.01371254260438413,0.00811539094936326,0.017530234075084507,0.013116280633334103,0.00025364733015963674
46.83949247859077,16.86273945845546,0.01682799073722503,0.013370266391550128,0.02290993366907544,0.019428681507523842,0.013533897011594059,0.024328714873813325,0.019042513581928083,0.01371254260438413,0.00811539094936326,0.017530234075084507,0.013116280633334103,0.00025364733015963674
46.839462148136114,16.862752462206593,0.04599896592381802,0.031623519481459195,0.12001414605012789,0.11139018093878116,0.11718251656692977,0.0559649675487523,0.3835004561164419,0.03348708343271223,0.07751069656976241,0.06068590751453236,0.042977517050511546,0.01574349394966188
46.839429687514205,16.862768859580605,0.04599896592381802,0.031623519481459195,0.12001414605012789,0.11139018093878116,0.11718251656692977,0.0559649675487523,0.3835004561164419,0.03348708343271223,0.07751069656976241,0.06068590751453236,0.042977517050511546,0.01574349394966188
46.839383608768486,16.86279912154756,0.04599896592381802,0.031623519481459195,0.12001414605012789,0.11139018093878116,0.11718251656692977,0.0559649675487523,0.3835004561164419,0.03348708343271223,0.07751069656976241,0.06068590751453236,0.042977517050511546,0.01574349394966188
46.83931210606677,16.862908568147123,0.04599896592381802,0.031623519481459195,0.12001414605012789,0.11139018093878116,0.11718251656692977,0.0559649675487523,0.3835004561164419,0.03348708343271223,0.07751069656976241,0.06068590751453236,0.042977517050511546,0.01574349394966188
46.839308593309035,16.863203802523728,0.04599896592381802,0.031623519481459195,0.12001414605012789,0.11139018093878116,0.11718251656692977,0.0559649675487523,0.3835004561164419,0.03348708343271223,0.07751069656976241,0.06068590751453236,0.042977517050511546,0.01574349394966188
46.83934728564986,16.863563376314005,0.05074193214001306,0.019373221780661684,0.6314448784412958,0.4491695991284653,0.07962233811856287,0.12681130701792936,0.32539533920454905,0.19168176125634212,0.10417184431862268,0.1338087836465985,0.04642015765822852,0.0004933560778928802
46.83939353190366,16.863975806403353,0.05074193214001306,0.019373221780661684,0.6314448784412958,0.4491695991284653,0.07962233811856287,0.12681130701792936,0.32539533920454905,0.19168176125634212,0.10417184431862268,0.1338087836465985,0.04642015765822852,0.0004933560778928802
46.83936837732445,16.86421201184291,0.05074193214001306,0.019373221780661684,0.6314448784412958,0.4491695991284653,0.07962233811856287,0.12681130701792936,0.32539533920454905,0.19168176125634212,0.10417184431862268,0.1338087836465985,0.04642015765822852,0.0004933560778928802
46.8393192479822,16.864223712687085,0.05074193214001306,0.019373221780661684,0.6314448784412958,0.4491695991284653,0.07962233811856287,0.12681130701792936,0.32539533920454905,0.19168176125634212,0.10417184431862268,0.1338087836465985,0.04642015765822852,0.0004933560778928802
46.839248044783425,16.86420050804021,0.05074193214001306,0.019373221780661684,0.6314448784412958,0.4491695991284653,0.07962233811856287,0.12681130701792936,0.32539533920454905,0.19168176125634212,0.10417184431862268,0.1338087836465985,0.04642015765822852,0.0004933560778928802
46.83920544823569,16.864201755591203,0.027024410703759712,0.06251296592891975,0.10784250124030495,0.09359324285043008,0.008018109324181441,0.047775714228447216,0.02264204161152385,0.05300327976272953,0.019293987853340296,0.06168298275736497,0.007271433431051282,0.0037050137765290694
46.839174957699846,16.86420328680923,0.027024410703759712,0.06251296592891975,0.10784250124030495,0.09359324285043008,0.008018109324181441,0.047775714228447216,0.02264204161152385,0.05300327976272953,0.019293987853340296,0.06168298275736497,0.007271433431051282,0.0037050137765290694
46.83913544388609,16.864205552936497,0.027024410703759712,0.06251296592891975,0.10784250124030495,0.09359324285043008,0.008018109324181441,0.047775714228447216,0.02264204161152385,0.05300327976272953,0.019293987853340296,0.06168298275736497,0.007271433431051282,0.0037050137765290694
46.83910448468171,16.864207436187744,0.027024410703759712,0.06251296592891975,0.10784250124030495,0.09359324285043008,0.008018109324181441,0.047775714228447216,0.02264204161152385,0.05300327976272953,0.019293987853340296,0.06168298275736497,0.007271433431051282,0.0037050137765290694
46.839076398314646,16.864209224629366,0.027024410703759712,0.06251296592891975,0.10784250124030495,0.09359324285043008,0.008018109324181441,0.047775714228447216,0.02264204161152385,0.05300327976272953,0.019293987853340296,0.06168298275736497,0.007271433431051282,0.0037050137765290694
46.83904922910612,16.864211036376737,0.10028097101717655,0.05896017699922619,0.03826817484755737,0.18021477441154565,0.19038530615104862,0.39196771633163047,0.1632917655521059,0.3253461256658697,0.111872108202446,0.21738541923659593,0.0033490994559973787,0.0009304926939265779
46.83901694310205,16.86421328809141,0.10028097101717655,0.05896017699922619,0.03826817484755737,0.18021477441154565,0.19038530615104862,0.39196771633163047,0.1632917655521059,0.3253461256658697,0.111872108202446,0.21738541923659593,0.0033490994559973787,0.0009304926939265779
46.83899233595104,16.86421506518868,0.10028097101717655,0.05896017699922619,0.03826817484755737,0.18021477441154565,0.19038530615104862,0.39196771633163047,0.1632917655521059,0.3253461256658697,0.111872108202446,0.21738541923659593,0.0033490994559973787,0.0009304926939265779
46.83896677256403,16.86421705497898,0.10028097101717655,0.05896017699922619,0.03826817484755737,0.18021477441154565,0.19038530615104862,0.39196771633163047,0.1632917655521059,0.3253461256658697,0.111872108202446,0.21738541923659593,0.0033490994559973787,0.0009304926939265779
46.83893970433435,16.86421940278723,0.10028097101717655,0.05896017699922619,0.03826817484755737,0.18021477441154565,0.19038530615104862,0.39196771633163047,0.1632917655521059,0.3253461256658697,0.111872108202446,0.21738541923659593,0.0033490994559973787,0.0009304926939265779
46.838912275728276,16.864222094960606,0.03157706913015054,0.07594999718360579,0.019755741162513125,0.05858762586072457,0.05849901418967092,0.06700797735923082,0.06787342713684552,0.1072052549939172,0.1131047092094925,0.04189471990320676,0.002484883195892207,0.0018480650024311615
46.83887891002114,16.86422575099036,0.03157706913015054,0.07594999718360579,0.019755741162513125,0.05858762586072457,0.05849901418967092,0.06700797735923082,0.06787342713684552,0.1072052549939172,0.1131047092094925,0.04189471990320676,0.002484883195892207,0.0018480650024311615
46.83884184160899,16.86422974574093,0.03157706913015054,0.07594999718360579,0.019755741162513125,0.05858762586072457,0.05849901418967092,0.06700797735923082,0.06787342713684552,0.1072052549939172,0.1131047092094925,0.04189471990320676,0.002484883195892207,0.0018480650024311615
46.83880748251044,16.864233353952358,0.03157706913015054,0.07594999718360579,0.019755741162513125,0.05858762586072457,0.05849901418967092,0.06700797735923082,0.06787342713684552,0.1072052549939172,0.1131047092094925,0.04189471990320676,0.002484883195892207,0.0018480650024311615
46.83879138461052,16.8642348966581,0.03157706913015054,0.07594999718360579,0.019755741162513125,0.05858762586072457,0.05849901418967092,0.06700797735923082,0.06787342713684552,0.1072052549939172,0.1131047092094925,0.04189471990320676,0.002484883195892207,0.0018480650024311615
46.83875846809703,16.864237662813082,0.0368125914409415,0.0850922737957898,0.03887816677426783,0.07595011783497008,0.08325243207945125,0.1880796712503658,0.07519233039285819,0.14715623102568196,0.07050090422776195,0.1496616939166118,0.004090652413057051,0.00477031626584221
46.83873683832188,16.86423918952093,0.0368125914409415,0.0850922737957898,0.03887816677426783,0.07595011783497008,0.08325243207945125,0.1880796712503658,0.07519233039285819,0.14715623102568196,0.07050090422776195,0.1496616939166118,0.004090652413057051,0.00477031626584221
46.83868514860061,16.8642423167652,0.0368125914409415,0.0850922737957898,0.03887816677426783,0.07595011783497008,0.08325243207945125,0.1880796712503658,0.07519233039285819,0.14715623102568196,0.07050090422776195,0.1496616939166118,0.004090652413057051,0.00477031626584221
46.838651142074255,16.864244741752874,0.0368125914409415,0.0850922737957898,0.03887816677426783,0.07595011783497008,0.08325243207945125,0.1880796712503658,0.07519233039285819,0.14715623102568196,0.07050090422776195,0.1496616939166118,0.004090652413057051,0.00477031626584221
46.83862372473366,16.864246835456424,0.0368125914409415,0.0850922737957898,0.03887816677426783,0.07595011783497008,0.08325243207945125,0.1880796712503658,0.07519233039285819,0.14715623102568196,0.07050090422776195,0.1496616939166118,0.004090652413057051,0.00477031626584221
46.83854711135625,16.864251412949336,0.03922173791570944,0.02429707963988314,0.13809769036165004,0.049593812477496224,0.028484968336265255,0.048969963734546804,0.008263923968378984,0.08241185969380943,0.026490786589848336,0.08868984805943972,0.005146160569095819,0.0016513602046507956
46.838514071456636,16.864253893945094,0.03922173791570944,0.02429707963988314,0.13809769036165004,0.049593812477496224,0.028484968336265255,0.048969963734546804,0.008263923968378984,0.08241185969380943,0.026490786589848336,0.08868984805943972,0.005146160569095819,0.0016513602046507956
46.83846577558899,16.864258449072725,0.03922173791570944,0.02429707963988314,0.13809769036165004,0.049593812477496224,0.028484968336265255,0.048969963734546804,0.008263923968378984,0.08241185969380943,0.026490786589848336,0.08868984805943972,0.005146160569095819,0.0016513602046507956
46.83841530317013,16.864261764104718,0.03922173791570944,0.02429707963988314,0.13809769036165004,0.049593812477496224,0.028484968336265255,0.048969963734546804,0.008263923968378984,0.08241185969380943,0.026490786589848336,0.08868984805943972,0.005146160569095819,0.0016513602046507956
46.8383487829526,16.86425427444416,0.03922173791570944,0.02429707963988314,0.13809769036165004,0.049593812477496224,0.028484968336265255,0.048969963734546804,0.008263923968378984,0.08241185969380943,0.026490786589848336,0.08868984805943972,0.005146160569095819,0.0016513602046507956
46.83828868722657,16.864149459548056,0.030039601806958548,0.03021115084134662,0.1870692176940753,0.24477641643900083,0.07118676937635074,0.08364823359852022,0.19381481917176935,0.08257941019115174,0.05677609443829988,0.09073964463558833,0.006113443642167455,0.009136811016193392
46.83826236904848,16.86383750157545,0.030039601806958548,0.03021115084134662,0.1870692176940753,0.24477641643900083,0.07118676937635074,0.08364823359852022,0.19381481917176935,0.08257941019115174,0.05677609443829988,0.09073964463558833,0.006113443642167455,0.009136811016193392
46.83826270847885,16.863432261264958,0.030039601806958548,0.03021115084134662,0.1870692176940753,0.24477641643900083,0.07118676937635074,0.08364823359852022,0.19381481917176935,0.08257941019115174,0.05677609443829988,0.09073964463558833,0.006113443642167455,0.009136811016193392
46.83822698055275,16.863112017562173,0.030039601806958548,0.03021115084134662,0.1870692176940753,0.24477641643900083,0.07118676937635074,0.08364823359852022,0.19381481917176935,0.08257941019115174,0.05677609443829988,0.09073964463558833,0.006113443642167455,0.009136811016193392
46.838180298126176,16.86273436235069,0.030039601806958548,0.03021115084134662,0.1870692176940753,0.24477641643900083,0.07118676937635074,0.08364823359852022,0.19381481917176935,0.08257941019115174,0.05677609443829988,0.09073964463558833,0.006113443642167455,0.009136811016193392
46.8381402382678,16.862353882104465,0.02886502782790931,0.019373221780661684,0.03553431701786253,0.06309795249879932,0.007517654405069813,0.020521077598119837,0.057357726755389964,0.07585863076167763,0.024337736307444395,0.05776883511277588,0.020316557107458548,0.0004933560778928802
46.83808089210109,16.861959372430892,0.02886502782790931,0.019373221780661684,0.03553431701786253,0.06309795249879932,0.007517654405069813,0.020521077598119837,0.057357726755389964,0.07585863076167763,0.024337736307444395,0.05776883511277588,0.020316557107458548,0.0004933560778928802
46.837994124544174,16.861762452911652,0.02886502782790931,0.019373221780661684,0.03553431701786253,0.06309795249879932,0.007517654405069813,0.020521077598119837,0.057357726755389964,0.07585863076167763,0.024337736307444395,0.05776883511277588,0.020316557107458548,0.0004933560778928802
46.83793170290298,16.86170229422341,0.02886502782790931,0.019373221780661684,0.03553431701786253,0.06309795249879932,0.007517654405069813,0.020521077598119837,0.057357726755389964,0.07585863076167763,0.024337736307444395,0.05776883511277588,0.020316557107458548,0.0004933560778928802
46.83788326085073,16.861669446380358,0.02886502782790931,0.019373221780661684,0.03553431701786253,0.06309795249879932,0.007517654405069813,0.020521077598119837,0.057357726755389964,0.07585863076167763,0.024337736307444395,0.05776883511277588,0.020316557107458548,0.0004933560778928802
46.837833751748285,16.861640473477262,0.021294030388325468,0.019373221780661684,0.1990961916709312,0.1743311170844406,0.007102435702904832,0.021502078080985414,0.031202134252154564,0.023930066540834512,0.032730593811527035,0.053086178404167766,0.020254279692166595,0.0004933560778928802
46.837760690017205,16.86158798144713,0.021294030388325468,0.019373221780661684,0.1990961916709312,0.1743311170844406,0.007102435702904832,0.021502078080985414,0.031202134252154564,0.023930066540834512,0.032730593811527035,0.053086178404167766,0.020254279692166595,0.0004933560778928802
46.8377017556356,16.861502942246755,0.021294030388325468,0.019373221780661684,0.1990961916709312,0.1743311170844406,0.007102435702904832,0.021502078080985414,0.031202134252154564,0.023930066540834512,0.032730593811527035,0.053086178404167766,0.020254279692166595,0.0004933560778928802
46.837629460239505,16.861304487140256,0.021294030388325468,0.019373221780661684,0.1990961916709312,0.1743311170844406,0.007102435702904832,0.021502078080985414,0.031202134252154564,0.023930066540834512,0.032730593811527035,0.053086178404167766,0.020254279692166595,0.0004933560778928802
46.8375681052333,16.86097618902111,0.021294030388325468,0.019373221780661684,0.1990961916709312,0.1743311170844406,0.007102435702904832,0.021502078080985414,0.031202134252154564,0.023930066540834512,0.032730593811527035,0.053086178404167766,0.020254279692166595,0.0004933560778928802
46.83756335071089,16.86062682316262,0.07128122045341002,0.03306265966998116,0.02694537469266293,0.028206682035436678,0.0067700919709208955,0.02757836841427482,0.021483736939175532,0.011347934159980953,0.014122934631111998,0.048202793739049246,0.03414625550602122,0.00824293179584801
46.83764104859564,16.860485822136667,0.07128122045341002,0.03306265966998116,0.02694537469266293,0.028206682035436678,0.0067700919709208955,0.02757836841427482,0.021483736939175532,0.011347934159980953,0.014122934631111998,0.048202793739049246,0.03414625550602122,0.00824293179584801
46.83768101676028,16.860442645287236,0.07128122045341002,0.03306265966998116,0.02694537469266293,0.028206682035436678,0.0067700919709208955,0.02757836841427482,0.021483736939175532,0.011347934159980953,0.014122934631111998,0.048202793739049246,0.03414625550602122,0.00824293179584801
46.83772491073972,16.860409149103155,0.07128122045341002,0.03306265966998116,0.02694537469266293,0.028206682035436678,0.0067700919709208955,0.02757836841427482,0.021483736939175532,0.011347934159980953,0.014122934631111998,0.048202793739049246,0.03414625550602122,0.00824293179584801
46.83776563041096,16.860389346875248,0.07128122045341002,0.03306265966998116,0.02694537469266293,0.028206682035436678,0.0067700919709208955,0.02757836841427482,0.021483736939175532,0.011347934159980953,0.014122934631111998,0.048202793739049246,0.03414625550602122,0.00824293179584801
46.837797017978495,16.860376949858807,0.07128122045341002,0.03306265966998116,0.02694537469266293,0.028206682035436678,0.0067700919709208955,0.02757836841427482,0.021483736939175532,0.011347934159980953,0.014122934631111998,0.048202793739049246,0.03414625550602122,0.00824293179584801
46.8378433520404,16.860355330228295,0.07128122045341002,0.03306265966998116,0.02694537469266293,0.028206682035436678,0.0067700919709208955,0.02757836841427482,0.021483736939175532,0.011347934159980953,0.014122934631111998,0.048202793739049246,0.03414625550602122,0.00824293179584801
46.83787799174894,16.86033658045578,0.07128122045341002,0.03306265966998116,0.02694537469266293,0.028206682035436678,0.0067700919709208955,0.02757836841427482,0.021483736939175532,0.011347934159980953,0.014122934631111998,0.048202793739049246,0.03414625550602122,0.00824293179584801
46.837901573070276,16.860322506530935,0.07128122045341002,0.03306265966998116,0.02694537469266293,0.028206682035436678,0.0067700919709208955,0.02757836841427482,0.021483736939175532,0.011347934159980953,0.014122934631111998,0.048202793739049246,0.03414625550602122,0.00824293179584801
46.83792793561461,16.860305636944325,0.07128122045341002,0.03306265966998116,0.02694537469266293,0.028206682035436678,0.0067700919709208955,0.02757836841427482,0.021483736939175532,0.011347934159980953,0.014122934631111998,0.048202793739049246,0.03414625550602122,0.00824293179584801
46.83795697947158,16.86028614433933,0.004519011489295221,0.02584314630314482,0.06780592914947797,0.1187827870118494,0.007544701320489056,0.032010562526272296,0.017513648300425445,0.03282870126329707,0.009895400615563849,0.05384094260901234,0.00014593202481769262,0.0006888296620819362
46.83798588537972,16.860268141041598,0.004519011489295221,0.02584314630314482,0.06780592914947797,0.1187827870118494,0.007544701320489056,0.032010562526272296,0.017513648300425445,0.03282870126329707,0.009895400615563849,0.05384094260901234,0.00014593202481769262,0.0006888296620819362
46.83801363626693,16.86025259864837,0.004519011489295221,0.02584314630314482,0.06780592914947797,0.1187827870118494,0.007544701320489056,0.032010562526272296,0.017513648300425445,0.03282870126329707,0.009895400615563849,0.05384094260901234,0.00014593202481769262,0.0006888296620819362
46.838041830868775,16.860238462618113,0.004519011489295221,0.02584314630314482,0.06780592914947797,0.1187827870118494,0.007544701320489056,0.032010562526272296,0.017513648300425445,0.03282870126329707,0.009895400615563849,0.05384094260901234,0.00014593202481769262,0.0006888296620819362
46.83806566953262,16.860226567852894,0.004519011489295221,0.02584314630314482,0.06780592914947797,0.1187827870118494,0.007544701320489056,0.032010562526272296,0.017513648300425445,0.03282870126329707,0.009895400615563849,0.05384094260901234,0.00014593202481769262,0.0006888296620819362
46.83809827474968,16.860209113023185,0.006605066653063922,0.025429933081913755,0.01191173241036305,0.034102334409392254,0.0023084635628898183,0.03547798123034531,0.008067109969669592,0.012316925610457689,0.0024872703370731344,0.03949434351040523,0.00229171230522845,0.000490431665567208
46.8381268069173,16.86019262748654,0.006605066653063922,0.025429933081913755,0.01191173241036305,0.034102334409392254,0.0023084635628898183,0.03547798123034531,0.008067109969669592,0.012316925610457689,0.0024872703370731344,0.03949434351040523,0.00229171230522845,0.000490431665567208
46.83815704039686,16.860174907560587,0.006605066653063922,0.025429933081913755,0.01191173241036305,0.034102334409392254,0.0023084635628898183,0.03547798123034531,0.008067109969669592,0.012316925610457689,0.0024872703370731344,0.03949434351040523,0.00229171230522845,0.000490431665567208
46.838196264127546,16.860153044077183,0.006605066653063922,0.025429933081913755,0.01191173241036305,0.034102334409392254,0.0023084635628898183,0.03547798123034531,0.008067109969669592,0.012316925610457689,0.0024872703370731344,0.03949434351040523,0.00229171230522845,0.000490431665567208
46.838225157619036,16.860137612107014,0.006605066653063922,0.025429933081913755,0.01191173241036305,0.034102334409392254,0.0023084635628898183,0.03547798123034531,0.008067109969669592,0.012316925610457689,0.0024872703370731344,0.03949434351040523,0.00229171230522845,0.000490431665567208
46.83825383200498,16.860120599695254,0.04150888309127981,0.019373221780661684,0.12394992878756168,0.06932803369685143,0.023025667626086863,0.048472221266945295,0.031324695107039245,0.04131215342338453,0.052533661438374436,0.10516151225716709,0.035436824625155953,0.0004933560778928802
46.838288092699166,16.86009733741398,0.04150888309127981,0.019373221780661684,0.12394992878756168,0.06932803369685143,0.023025667626086863,0.048472221266945295,0.031324695107039245,0.04131215342338453,0.052533661438374436,0.10516151225716709,0.035436824625155953,0.0004933560778928802
46.83835724616437,16.860041674785254,0.04150888309127981,0.019373221780661684,0.12394992878756168,0.06932803369685143,0.023025667626086863,0.048472221266945295,0.031324695107039245,0.04131215342338453,0.052533661438374436,0.10516151225716709,0.035436824625155953,0.0004933560778928802
46.8384359815204,16.85991993232775,0.04150888309127981,0.019373221780661684,0.12394992878756168,0.06932803369685143,0.023025667626086863,0.048472221266945295,0.031324695107039245,0.04131215342338453,0.052533661438374436,0.10516151225716709,0.035436824625155953,0.0004933560778928802
46.83843300870032,16.85968400739121,0.04150888309127981,0.019373221780661684,0.12394992878756168,0.06932803369685143,0.023025667626086863,0.048472221266945295,0.031324695107039245,0.04131215342338453,0.052533661438374436,0.10516151225716709,0.035436824625155953,0.0004933560778928802
46.838343540585235,16.859450998632056,0.017954286530543997,0.13170692515683904,0.17116270753140028,0.282355429389202,0.05554271671794567,0.12280611782928078,0.11761712082374866,0.13683303921226453,0.06674843999050621,0.126753872981847,0.01235696117742849,0.041090707305863186
46.8382481583251,16.859136342368284,0.017954286530543997,0.13170692515683904,0.17116270753140028,0.282355429389202,0.05554271671794567,0.12280611782928078,0.11761712082374866,0.13683303921226453,0.06674843999050621,0.126753872981847,0.01235696117742849,0.041090707305863186
46.838183145374316,16.85881004580135,0.017954286530543997,0.13170692515683904,0.17116270753140028,0.282355429389202,0.05554271671794567,0.12280611782928078,0.11761712082374866,0.13683303921226453,0.06674843999050621,0.126753872981847,0.01235696117742849,0.041090707305863186
46.83812368387196,16.858636656027247,0.017954286530543997,0.13170692515683904,0.17116270753140028,0.282355429389202,0.05554271671794567,0.12280611782928078,0.11761712082374866,0.13683303921226453,0.06674843999050621,0.126753872981847,0.01235696117742849,0.041090707305863186
46.83806824528975,16.85849380027472,0.017954286530543997,0.13170692515683904,0.17116270753140028,0.282355429389202,0.05554271671794567,0.12280611782928078,0.11761712082374866,0.13683303921226453,0.06674843999050621,0.126753872981847,0.01235696117742849,0.041090707305863186
46.83798869014394,16.858315380685166,0.030974170370251686,0.12802057810818163,0.06964283497288662,0.08632826912889995,0.04303712958425412,0.1308924566650038,0.1345973081423532,0.044863690100020316,0.06538581442274082,0.22597530007866565,0.0068041720714220365,0.017397950791051123
46.83793511138621,16.858180413624233,0.030974170370251686,0.12802057810818163,0.06964283497288662,0.08632826912889995,0.04303712958425412,0.1308924566650038,0.1345973081423532,0.044863690100020316,0.06538581442274082,0.22597530007866565,0.0068041720714220365,0.017397950791051123
46.8378809436492,16.8580709803471,0.030974170370251686,0.12802057810818163,0.06964283497288662,0.08632826912889995,0.04303712958425412,0.1308924566650038,0.1345973081423532,0.044863690100020316,0.06538581442274082,0.22597530007866565,0.0068041720714220365,0.017397950791051123
46.837825436303305,16.857983776125575,0.030974170370251686,0.12802057810818163,0.06964283497288662,0.08632826912889995,0.04303712958425412,0.1308924566650038,0.1345973081423532,0.044863690100020316,0.06538581442274082,0.22597530007866565,0.0068041720714220365,0.017397950791051123
46.837775217394274,16.85791461669365,0.030974170370251686,0.12802057810818163,0.06964283497288662,0.08632826912889995,0.04303712958425412,0.1308924566650038,0.1345973081423532,0.044863690100020316,0.06538581442274082,0.22597530007866565,0.0068041720714220365,0.017397950791051123
46.83772369547212,16.85785298597758,0.08781731751484824,0.019373221780661684,0.11719225904111122,0.19175769376039997,0.09183271953945249,0.5425472380344121,0.03587398042651982,0.24546289650475508,0.1725939248264374,0.521618801503352,0.011211736081028736,0.0004933560778928802
46.837702282156734,16.85782841902032,0.08781731751484824,0.019373221780661684,0.11719225904111122,0.19175769376039997,0.09183271953945249,0.5425472380344121,0.03587398042651982,0.24546289650475508,0.1725939248264374,0.521618801503352,0.011211736081028736,0.0004933560778928802
46.837642468173584,16.857763293037095,0.08781731751484824,0.019373221780661684,0.11719225904111122,0.19175769376039997,0.09183271953945249,0.5425472380344121,0.03587398042651982,0.24546289650475508,0.1725939248264374,0.521618801503352,0.011211736081028736,0.0004933560778928802
46.83758162737771,16.857705561309345,0.08781731751484824,0.019373221780661684,0.11719225904111122,0.19175769376039997,0.09183271953945249,0.5425472380344121,0.03587398042651982,0.24546289650475508,0.1725939248264374,0.521618801503352,0.011211736081028736,0.0004933560778928802
46.8375347845294,16.857667744527994,0.08781731751484824,0.019373221780661684,0.11719225904111122,0.19175769376039997,0.09183271953945249,0.5425472380344121,0.03587398042651982,0.24546289650475508,0.1725939248264374,0.521618801503352,0.011211736081028736,0.0004933560778928802
46.83745941502823,16.85762246590669,0.0666318399789939,0.11703626424229852,0.33949533356629014,0.28942405291484186,0.07706693808495076,0.35416184232200687,0.12232213250889079,0.3008383353936249,0.4252700173005736,0.4269681653008992,0.004059030941744326,0.007417412921254
46.837408642209084,16.857583114507403,0.0666318399789939,0.11703626424229852,0.33949533356629014,0.28942405291484186,0.07706693808495076,0.35416184232200687,0.12232213250889079,0.3008383353936249,0.4252700173005736,0.4269681653008992,0.004059030941744326,0.007417412921254
46.83737872648639,16.857560515328995,0.0666318399789939,0.11703626424229852,0.33949533356629014,0.28942405291484186,0.07706693808495076,0.35416184232200687,0.12232213250889079,0.3008383353936249,0.4252700173005736,0.4269681653008992,0.004059030941744326,0.007417412921254
46.837330765326094,16.85752744645953,0.0666318399789939,0.11703626424229852,0.33949533356629014,0.28942405291484186,0.07706693808495076,0.35416184232200687,0.12232213250889079,0.3008383353936249,0.4252700173005736,0.4269681653008992,0.004059030941744326,0.007417412921254
46.83727139044208,16.857481205364017,0.0666318399789939,0.11703626424229852,0.33949533356629014,0.28942405291484186,0.07706693808495076,0.35416184232200687,0.12232213250889079,0.3008383353936249,0.4252700173005736,0.4269681653008992,0.004059030941744326,0.007417412921254
46.83720787761595,16.857437238148247,0.016113363566695058,0.0531540273315815,0.4126760054211782,0.14910134548821977,0.01806675907092898,0.10482734996173912,0.036417387207918615,0.05925382414924914,0.04045778948364926,0.10100880050073806,0.004443664075051912,0.007862185873469927
46.837106862833096,16.85736993161252,0.016113363566695058,0.0531540273315815,0.4126760054211782,0.14910134548821977,0.01806675907092898,0.10482734996173912,0.036417387207918615,0.05925382414924914,0.04045778948364926,0.10100880050073806,0.004443664075051912,0.007862185873469927
46.837063177930894,16.857335910010033,0.016113363566695058,0.0531540273315815,0.4126760054211782,0.14910134548821977,0.01806675907092898,0.10482734996173912,0.036417387207918615,0.05925382414924914,0.04045778948364926,0.10100880050073806,0.004443664075051912,0.007862185873469927
46.83697620515332,16.857273026793198,0.016113363566695058,0.0531540273315815,0.4126760054211782,0.14910134548821977,0.01806675907092898,0.10482734996173912,0.036417387207918615,0.05925382414924914,0.04045778948364926,0.10100880050073806,0.004443664075051912,0.007862185873469927
46.83692444909507,16.85723534443305,0.016113363566695058,0.0531540273315815,0.4126760054211782,0.14910134548821977,0.01806675907092898,0.10482734996173912,0.036417387207918615,0.05925382414924914,0.04045778948364926,0.10100880050073806,0.004443664075051912,0.007862185873469927
46.836875076674126,16.85720450531969,0.03409549103849946,0.0921064522642561,0.2774584195886266,0.680733334994694,0.036176326935431685,0.1157206320106234,0.043913199929433926,0.09805949374993055,0.09299540826181235,0.18549393546174303,0.012423881411037868,0.007965856870766189
46.83679661200417,16.857159665645636,0.03409549103849946,0.0921064522642561,0.2774584195886266,0.680733334994694,0.036176326935431685,0.1157206320106234,0.043913199929433926,0.09805949374993055,0.09299540826181235,0.18549393546174303,0.012423881411037868,0.007965856870766189
46.836748615444,16.85713041842724,0.03409549103849946,0.0921064522642561,0.2774584195886266,0.680733334994694,0.036176326935431685,0.1157206320106234,0.043913199929433926,0.09805949374993055,0.09299540826181235,0.18549393546174303,0.012423881411037868,0.007965856870766189
46.836695478738974,16.857105027600813,0.03409549103849946,0.0921064522642561,0.2774584195886266,0.680733334994694,0.036176326935431685,0.1157206320106234,0.043913199929433926,0.09805949374993055,0.09299540826181235,0.18549393546174303,0.012423881411037868,0.007965856870766189
46.83665231642359,16.857084802103444,0.03409549103849946,0.0921064522642561,0.2774584195886266,0.680733334994694,0.036176326935431685,0.1157206320106234,0.043913199929433926,0.09805949374993055,0.09299540826181235,0.18549393546174303,0.012423881411037868,0.007965856870766189
46.83656079009761,16.85703310391884,0.041062160667178715,0.1047458270957756,0.11832388007182959,0.12806422231977907,0.14178286608426438,0.07655241210872196,0.025390683190303076,0.11779355355292122,0.1933483389636071,0.15724495415229617,0.029029772545688375,0.00831844286454396
46.83649531824106,16.857010977011207,0.041062160667178715,0.1047458270957756,0.11832388007182959,0.12806422231977907,0.14178286608426438,0.07655241210872196,0.025390683190303076,0.11779355355292122,0.1933483389636071,0.15724495415229617,0.029029772545688375,0.00831844286454396
46.83640536454141,16.856964357755615,0.041062160667178715,0.1047458270957756,0.11832388007182959,0.12806422231977907,0.14178286608426438,0.07655241210872196,0.025390683190303076,0.11779355355292122,0.1933483389636071,0.15724495415229617,0.029029772545688375,0.00831844286454396
46.83635280651734,16.856940442996564,0.041062160667178715,0.1047458270957756,0.11832388007182959,0.12806422231977907,0.14178286608426438,0.07655241210872196,0.025390683190303076,0.11779355355292122,0.1933483389636071,0.15724495415229617,0.029029772545688375,0.00831844286454396
46.83632382654282,16.856925343970648,0.041062160667178715,0.1047458270957756,0.11832388007182959,0.12806422231977907,0.14178286608426438,0.07655241210872196,0.025390683190303076,0.11779355355292122,0.1933483389636071,0.15724495415229617,0.029029772545688375,0.00831844286454396
46.83625498626458,16.85687782809603,0.05329947488908915,0.10591766059308781,0.03247782595515086,0.23041383173757035,0.050073246516454215,0.1854794669673319,0.02976237165952143,0.0683799843660264,0.04283201494045802,0.12438457698956461,0.009073937908349742,0.0026066267781155203
46.8362169922145,16.85686146283059,0.05329947488908915,0.10591766059308781,0.03247782595515086,0.23041383173757035,0.050073246516454215,0.1854794669673319,0.02976237165952143,0.0683799843660264,0.04283201494045802,0.12438457698956461,0.009073937908349742,0.0026066267781155203
46.83615203472205,16.85683477381155,0.05329947488908915,0.10591766059308781,0.03247782595515086,0.23041383173757035,0.050073246516454215,0.1854794669673319,0.02976237165952143,0.0683799843660264,0.04283201494045802,0.12438457698956461,0.009073937908349742,0.0026066267781155203
46.83610920861498,16.856817177873562,0.05329947488908915,0.10591766059308781,0.03247782595515086,0.23041383173757035,0.050073246516454215,0.1854794669673319,0.02976237165952143,0.0683799843660264,0.04283201494045802,0.12438457698956461,0.009073937908349742,0.0026066267781155203
46.83606523865772,16.856799111942532,0.05329947488908915,0.10591766059308781,0.03247782595515086,0.23041383173757035,0.050073246516454215,0.1854794669673319,0.02976237165952143,0.0683799843660264,0.04283201494045802,0.12438457698956461,0.009073937908349742,0.0026066267781155203
46.83603751842743,16.856787722544954,0.048819126886262575,0.11007852291755409,0.059519094616538405,0.06691848275223818,0.047531198310847976,0.11186842394683018,0.017779874099312403,0.03964468476870158,0.01822577137360893,0.11474720064247229,0.014376904607617896,0.010551606599359735
46.83596969381346,16.856759855492516,0.048819126886262575,0.11007852291755409,0.059519094616538405,0.06691848275223818,0.047531198310847976,0.11186842394683018,0.017779874099312403,0.03964468476870158,0.01822577137360893,0.11474720064247229,0.014376904607617896,0.010551606599359735
46.83591579344903,16.85673770948013,0.048819126886262575,0.11007852291755409,0.059519094616538405,0.06691848275223818,0.047531198310847976,0.11186842394683018,0.017779874099312403,0.03964468476870158,0.01822577137360893,0.11474720064247229,0.014376904607617896,0.010551606599359735
46.83586767349647,16.85671786731806,0.048819126886262575,0.11007852291755409,0.059519094616538405,0.06691848275223818,0.047531198310847976,0.11186842394683018,0.017779874099312403,0.03964468476870158,0.01822577137360893,0.11474720064247229,0.014376904607617896,0.010551606599359735
46.8358045401139,16.856693667313746,0.048819126886262575,0.11007852291755409,0.059519094616538405,0.06691848275223818,0.047531198310847976,0.11186842394683018,0.017779874099312403,0.03964468476870158,0.01822577137360893,0.11474720064247229,0.014376904607617896,0.010551606599359735
46.83571773294824,16.85666469188134,0.023451475813340797,0.11077720932031977,0.025563426077601058,0.11455740700090439,0.0670208099077627,0.14870734577663125,0.023869633811263894,0.05678285060672433,0.054056516010765714,0.1547355971911183,0.0046007060847020565,0.005982981883131459
46.83568516740157,16.856652667587362,0.023451475813340797,0.11077720932031977,0.025563426077601058,0.11455740700090439,0.0670208099077627,0.14870734577663125,0.023869633811263894,0.05678285060672433,0.054056516010765714,0.1547355971911183,0.0046007060847020565,0.005982981883131459
46.83561711074168,16.85662899582407,0.023451475813340797,0.11077720932031977,0.025563426077601058,0.11455740700090439,0.0670208099077627,0.14870734577663125,0.023869633811263894,0.05678285060672433,0.054056516010765714,0.1547355971911183,0.0046007060847020565,0.005982981883131459
46.83557595134577,16.856612879090697,0.023451475813340797,0.11077720932031977,0.025563426077601058,0.11455740700090439,0.0670208099077627,0.14870734577663125,0.023869633811263894,0.05678285060672433,0.054056516010765714,0.1547355971911183,0.0046007060847020565,0.005982981883131459
46.83551551015591,16.85658697373963,0.023451475813340797,0.11077720932031977,0.025563426077601058,0.11455740700090439,0.0670208099077627,0.14870734577663125,0.023869633811263894,0.05678285060672433,0.054056516010765714,0.1547355971911183,0.0046007060847020565,0.005982981883131459
46.835467112635904,16.8565650714824,0.023451475813340797,0.11077720932031977,0.025563426077601058,0.11455740700090439,0.0670208099077627,0.14870734577663125,0.023869633811263894,0.05678285060672433,0.054056516010765714,0.1547355971911183,0.0046007060847020565,0.005982981883131459
46.835424914741935,16.856547434641435,0.023451475813340797,0.11077720932031977,0.025563426077601058,0.11455740700090439,0.0670208099077627,0.14870734577663125,0.023869633811263894,0.05678285060672433,0.054056516010765714,0.1547355971911183,0.0046007060847020565,0.005982981883131459
46.83537416377753,16.85652131565602,0.023451475813340797,0.11077720932031977,0.025563426077601058,0.11455740700090439,0.0670208099077627,0.14870734577663125,0.023869633811263894,0.05678285060672433,0.054056516010765714,0.1547355971911183,0.0046007060847020565,0.005982981883131459
46.835312568043896,16.856482702125266,0.023451475813340797,0.11077720932031977,0.025563426077601058,0.11455740700090439,0.0670208099077627,0.14870734577663125,0.023869633811263894,0.05678285060672433,0.054056516010765714,0.1547355971911183,0.0046007060847020565,0.005982981883131459
46.83524908391094,16.856455882381187,0.023451475813340797,0.11077720932031977,0.025563426077601058,0.11455740700090439,0.0670208099077627,0.14870734577663125,0.023869633811263894,0.05678285060672433,0.054056516010765714,0.1547355971911183,0.0046007060847020565,0.005982981883131459
46.83516897482006,16.85642142154498,0.04951823915755502,0.17055300585284433,0.056929515166565955,0.1748790083589262,0.13636587606514414,0.4299046272373237,0.26340539666511786,0.265787710083381,0.0842321482795209,0.3146961737289904,0.0026162197890494707,0.007981568997627067
46.83511810395906,16.85639930192431,0.04951823915755502,0.17055300585284433,0.056929515166565955,0.1748790083589262,0.13636587606514414,0.4299046272373237,0.26340539666511786,0.265787710083381,0.0842321482795209,0.3146961737289904,0.0026162197890494707,0.007981568997627067
46.835079845756916,16.85638383733397,0.04951823915755502,0.17055300585284433,0.056929515166565955,0.1748790083589262,0.13636587606514414,0.4299046272373237,0.26340539666511786,0.265787710083381,0.0842321482795209,0.3146961737289904,0.0026162197890494707,0.007981568997627067
46.83500532211233,16.856354224607106,0.04951823915755502,0.17055300585284433,0.056929515166565955,0.1748790083589262,0.13636587606514414,0.4299046272373237,0.26340539666511786,0.265787710083381,0.0842321482795209,0.3146961737289904,0.0026162197890494707,0.007981568997627067
46.83494795208237,16.856333121551913,0.04951823915755502,0.17055300585284433,0.056929515166565955,0.1748790083589262,0.13636587606514414,0.4299046272373237,0.26340539666511786,0.265787710083381,0.0842321482795209,0.3146961737289904,0.0026162197890494707,0.007981568997627067
46.83487130649836,16.856305219345145,0.03196051263169804,0.17281421462690888,0.14522124848809587,0.29153394204969074,0.05336812313948923,0.20901041114743313,0.019063329439899312,0.06540696786462691,0.03991222043497079,0.19123015236992388,0.0035041745074606005,0.003845289001282672
46.83482302118237,16.85628751771603,0.03196051263169804,0.17281421462690888,0.14522124848809587,0.29153394204969074,0.05336812313948923,0.20901041114743313,0.019063329439899312,0.06540696786462691,0.03991222043497079,0.19123015236992388,0.0035041745074606005,0.003845289001282672
46.834749889316384,16.856259728609583,0.03196051263169804,0.17281421462690888,0.14522124848809587,0.29153394204969074,0.05336812313948923,0.20901041114743313,0.019063329439899312,0.06540696786462691,0.03991222043497079,0.19123015236992388,0.0035041745074606005,0.003845289001282672
46.834710079051824,16.85624519446843,0.03196051263169804,0.17281421462690888,0.14522124848809587,0.29153394204969074,0.05336812313948923,0.20901041114743313,0.019063329439899312,0.06540696786462691,0.03991222043497079,0.19123015236992388,0.0035041745074606005,0.003845289001282672
46.83462010884222,16.856214383417225,0.03196051263169804,0.17281421462690888,0.14522124848809587,0.29153394204969074,0.05336812313948923,0.20901041114743313,0.019063329439899312,0.06540696786462691,0.03991222043497079,0.19123015236992388,0.0035041745074606005,0.003845289001282672
46.83455136828709,16.856188841683824,0.011857260766285778,0.09830907429500987,0.09035244944055626,0.1532963909777182,0.03537544687981162,0.133699288235599,0.03335500536344384,0.07466675265807936,0.06275437313230434,0.25945031635218535,0.0022352775374778365,0.0032392492663129257
46.83449702221545,16.85616642510233,0.011857260766285778,0.09830907429500987,0.09035244944055626,0.1532963909777182,0.03537544687981162,0.133699288235599,0.03335500536344384,0.07466675265807936,0.06275437313230434,0.25945031635218535,0.0022352775374778365,0.0032392492663129257
46.83442566803152,16.856133688382236,0.011857260766285778,0.09830907429500987,0.09035244944055626,0.1532963909777182,0.03537544687981162,0.133699288235599,0.03335500536344384,0.07466675265807936,0.06275437313230434,0.25945031635218535,0.0022352775374778365,0.0032392492663129257
46.83433632780964,16.85608258088201,0.011857260766285778,0.09830907429500987,0.09035244944055626,0.1532963909777182,0.03537544687981162,0.133699288235599,0.03335500536344384,0.07466675265807936,0.06275437313230434,0.25945031635218535,0.0022352775374778365,0.0032392492663129257
46.83427771412993,16.856062381856702,0.011857260766285778,0.09830907429500987,0.09035244944055626,0.1532963909777182,0.03537544687981162,0.133699288235599,0.03335500536344384,0.07466675265807936,0.06275437313230434,0.25945031635218535,0.0022352775374778365,0.0032392492663129257
46.834200930947645,16.856033378243044,0.011857260766285778,0.09830907429500987,0.09035244944055626,0.1532963909777182,0.03537544687981162,0.133699288235599,0.03335500536344384,0.07466675265807936,0.06275437313230434,0.25945031635218535,0.0022352775374778365,0.0032392492663129257
46.834134267781906,16.856011775173865,0.011857260766285778,0.09830907429500987,0.09035244944055626,0.1532963909777182,0.03537544687981162,0.133699288235599,0.03335500536344384,0.07466675265807936,0.06275437313230434,0.25945031635218535,0.0022352775374778365,0.0032392492663129257
46.834080107674275,16.855993744027028,0.011857260766285778,0.09830907429500987,0.09035244944055626,0.1532963909777182,0.03537544687981162,0.133699288235599,0.03335500536344384,0.07466675265807936,0.06275437313230434,0.25945031635218535,0.0022352775374778365,0.0032392492663129257
46.83401948090968,16.855973478632894,0.011857260766285778,0.09830907429500987,0.09035244944055626,0.1532963909777182,0.03537544687981162,0.133699288235599,0.03335500536344384,0.07466675265807936,0.06275437313230434,0.25945031635218535,0.0022352775374778365,0.0032392492663129257
46.83395885247063,16.855952924730843,0.011857260766285778,0.09830907429500987,0.09035244944055626,0.1532963909777182,0.03537544687981162,0.133699288235599,0.03335500536344384,0.07466675265807936,0.06275437313230434,0.25945031635218535,0.0022352775374778365,0.0032392492663129257
46.833895514260696,16.85593124682837,0.06611304705125276,0.09124462557975718,0.06075775851710884,0.09572544786518328,0.05342894217314049,0.11498653669987591,0.0054392598261658945,0.043688599481215604,0.06553093909568354,0.10553066608807535,0.0023281688618708362,0.0015064345906135885
46.83383176078599,16.85590758540247,0.06611304705125276,0.09124462557975718,0.06075775851710884,0.09572544786518328,0.05342894217314049,0.11498653669987591,0.0054392598261658945,0.043688599481215604,0.06553093909568354,0.10553066608807535,0.0023281688618708362,0.0015064345906135885
46.833780805172914,16.855888469940194,0.06611304705125276,0.09124462557975718,0.06075775851710884,0.09572544786518328,0.05342894217314049,0.11498653669987591,0.0054392598261658945,0.043688599481215604,0.06553093909568354,0.10553066608807535,0.0023281688618708362,0.0015064345906135885
46.83371540170945,16.855863326915344,0.06611304705125276,0.09124462557975718,0.06075775851710884,0.09572544786518328,0.05342894217314049,0.11498653669987591,0.0054392598261658945,0.043688599481215604,0.06553093909568354,0.10553066608807535,0.0023281688618708362,0.0015064345906135885
46.83367468515288,16.855846254752237,0.06611304705125276,0.09124462557975718,0.06075775851710884,0.09572544786518328,0.05342894217314049,0.11498653669987591,0.0054392598261658945,0.043688599481215604,0.06553093909568354,0.10553066608807535,0.0023281688618708362,0.0015064345906135885
46.833632516716435,16.85582848209495,0.030695992595253734,0.12677967239924695,0.2616455133808017,0.33898786266088626,0.05125427814075178,0.19194691132560424,0.05562356023783794,0.09018108073896665,0.11906590403580238,0.16708311814817825,0.009393385844188062,0.009283857297766852
46.833558385228805,16.855794877047,0.030695992595253734,0.12677967239924695,0.2616455133808017,0.33898786266088626,0.05125427814075178,0.19194691132560424,0.05562356023783794,0.09018108073896665,0.11906590403580238,0.16708311814817825,0.009393385844188062,0.009283857297766852
46.833501867253645,16.855772587215384,0.030695992595253734,0.12677967239924695,0.2616455133808017,0.33898786266088626,0.05125427814075178,0.19194691132560424,0.05562356023783794,0.09018108073896665,0.11906590403580238,0.16708311814817825,0.009393385844188062,0.009283857297766852
46.83345145523723,16.855726674635594,0.030695992595253734,0.12677967239924695,0.2616455133808017,0.33898786266088626,0.05125427814075178,0.19194691132560424,0.05562356023783794,0.09018108073896665,0.11906590403580238,0.16708311814817825,0.009393385844188062,0.009283857297766852
46.83338468817933,16.85570696494452,0.030695992595253734,0.12677967239924695,0.2616455133808017,0.33898786266088626,0.05125427814075178,0.19194691132560424,0.05562356023783794,0.09018108073896665,0.11906590403580238,0.16708311814817825,0.009393385844188062,0.009283857297766852
46.83333150681251,16.855698042390642,0.06369717640363308,0.05498048468007448,0.17062355930393788,0.4824982896033294,0.10143621807707469,0.14213042423699312,0.11632899695743133,0.09799631217235913,0.14278108535823547,0.3086458642935863,0.020728946488021094,0.019911392810402415
46.833279599351975,16.855663380716816,0.06369717640363308,0.05498048468007448,0.17062355930393788,0.4824982896033294,0.10143621807707469,0.14213042423699312,0.11632899695743133,0.09799631217235913,0.14278108535823547,0.3086458642935863,0.020728946488021094,0.019911392810402415
46.8332086410826,16.85566276685304,0.06369717640363308,0.05498048468007448,0.17062355930393788,0.4824982896033294,0.10143621807707469,0.14213042423699312,0.11632899695743133,0.09799631217235913,0.14278108535823547,0.3086458642935863,0.020728946488021094,0.019911392810402415
46.833133482755485,16.85566436132019,0.06369717640363308,0.05498048468007448,0.17062355930393788,0.4824982896033294,0.10143621807707469,0.14213042423699312,0.11632899695743133,0.09799631217235913,0.14278108535823547,0.3086458642935863,0.020728946488021094,0.019911392810402415
46.83306650156432,16.855669906363293,0.06369717640363308,0.05498048468007448,0.17062355930393788,0.4824982896033294,0.10143621807707469,0.14213042423699312,0.11632899695743133,0.09799631217235913,0.14278108535823547,0.3086458642935863,0.020728946488021094,0.019911392810402415
46.83302324451509,16.85567368382325,0.079299602515265,0.019373221780661684,0.2165498791525814,0.3784667363124317,0.03287492491015147,0.11079650592947451,0.07300836856210284,0.2015763427572204,0.6186098124960568,0.9406110399618943,0.03673084754734358,0.0004933560778928802
46.832925195151304,16.855697856149213,0.079299602515265,0.019373221780661684,0.2165498791525814,0.3784667363124317,0.03287492491015147,0.11079650592947451,0.07300836856210284,0.2015763427572204,0.6186098124960568,0.9406110399618943,0.03673084754734358,0.0004933560778928802
46.832900831107466,16.85572633633681,0.079299602515265,0.019373221780661684,0.2165498791525814,0.3784667363124317,0.03287492491015147,0.11079650592947451,0.07300836856210284,0.2015763427572204,0.6186098124960568,0.9406110399618943,0.03673084754734358,0.0004933560778928802
46.832865018287805,16.855716719036494,0.079299602515265,0.019373221780661684,0.2165498791525814,0.3784667363124317,0.03287492491015147,0.11079650592947451,0.07300836856210284,0.2015763427572204,0.6186098124960568,0.9406110399618943,0.03673084754734358,0.0004933560778928802
46.83283048827725,16.85569123844607,0.079299602515265,0.019373221780661684,0.2165498791525814,0.3784667363124317,0.03287492491015147,0.11079650592947451,0.07300836856210284,0.2015763427572204,0.6186098124960568,0.9406110399618943,0.03673084754734358,0.0004933560778928802
46.83276805991619,16.855560681117183,0.028437084088586598,0.0686440853430138,0.24327451054602595,0.4573288094378117,0.00449830204502423,0.04458017954586546,0.017934473322249914,0.03016337505165823,0.009341659490118564,0.08632753281439721,0.014623490896623426,0.01799175137497148
46.83269391162246,16.85547832769991,0.028437084088586598,0.0686440853430138,0.24327451054602595,0.4573288094378117,0.00449830204502423,0.04458017954586546,0.017934473322249914,0.03016337505165823,0.009341659490118564,0.08632753281439721,0.014623490896623426,0.01799175137497148
46.83263151532746,16.855433252298024,0.028437084088586598,0.0686440853430138,0.24327451054602595,0.4573288094378117,0.00449830204502423,0.04458017954586546,0.017934473322249914,0.03016337505165823,0.009341659490118564,0.08632753281439721,0.014623490896623426,0.01799175137497148
46.83260162572993,16.85541537073367,0.028437084088586598,0.0686440853430138,0.24327451054602595,0.4573288094378117,0.00449830204502423,0.04458017954586546,0.017934473322249914,0.03016337505165823,0.009341659490118564,0.08632753281439721,0.014623490896623426,0.01799175137497148
46.83254013254731,16.855380576037053,0.028437084088586598,0.0686440853430138,0.24327451054602595,0.4573288094378117,0.00449830204502423,0.04458017954586546,0.017934473322249914,0.03016337505165823,0.009341659490118564,0.08632753281439721,0.014623490896623426,0.01799175137497148
46.832489474682795,16.855355429502165,0.023039627366397107,0.06200431129029307,0.01559327097951358,0.029182013765087493,0.018910550085622667,0.0732753037228308,0.028009859233531574,0.05263047319955021,0.02388736489176457,0.09142708545608641,0.005825987754195808,0.002532876272125044
46.83243954780043,16.85533038513863,0.023039627366397107,0.06200431129029307,0.01559327097951358,0.029182013765087493,0.018910550085622667,0.0732753037228308,0.028009859233531574,0.05263047319955021,0.02388736489176457,0.09142708545608641,0.005825987754195808,0.002532876272125044
46.83239387231985,16.85530675657513,0.023039627366397107,0.06200431129029307,0.01559327097951358,0.029182013765087493,0.018910550085622667,0.0732753037228308,0.028009859233531574,0.05263047319955021,0.02388736489176457,0.09142708545608641,0.005825987754195808,0.002532876272125044
46.832341029955835,16.85528015987346,0.023039627366397107,0.06200431129029307,0.01559327097951358,0.029182013765087493,0.018910550085622667,0.0732753037228308,0.028009859233531574,0.05263047319955021,0.02388736489176457,0.09142708545608641,0.005825987754195808,0.002532876272125044
46.83231253608488,16.855265951466166,0.023039627366397107,0.06200431129029307,0.01559327097951358,0.029182013765087493,0.018910550085622667,0.0732753037228308,0.028009859233531574,0.05263047319955021,0.02388736489176457,0.09142708545608641,0.005825987754195808,0.002532876272125044
46.83227467685219,16.855247091688216,0.023039627366397107,0.06200431129029307,0.01559327097951358,0.029182013765087493,0.018910550085622667,0.0732753037228308,0.028009859233531574,0.05263047319955021,0.02388736489176457,0.09142708545608641,0.005825987754195808,0.002532876272125044
46.832252374429125,16.855236390980288,0.023039627366397107,0.06200431129029307,0.01559327097951358,0.029182013765087493,0.018910550085622667,0.0732753037228308,0.028009859233531574,0.05263047319955021,0.02388736489176457,0.09142708545608641,0.005825987754195808,0.002532876272125044
46.832220705317944,16.855222765561837,0.023039627366397107,0.06200431129029307,0.01559327097951358,0.029182013765087493,0.018910550085622667,0.0732753037228308,0.028009859233531574,0.05263047319955021,0.02388736489176457,0.09142708545608641,0.005825987754195808,0.002532876272125044
46.83218232521778,16.8552086625039,0.023039627366397107,0.06200431129029307,0.01559327097951358,0.029182013765087493,0.018910550085622667,0.0732753037228308,0.028009859233531574,0.05263047319955021,0.02388736489176457,0.09142708545608641,0.005825987754195808,0.002532876272125044
46.832147545094,16.855196272866227,0.023039627366397107,0.06200431129029307,0.01559327097951358,0.029182013765087493,0.018910550085622667,0.0732753037228308,0.028009859233531574,0.05263047319955021,0.02388736489176457,0.09142708545608641,0.005825987754195808,0.002532876272125044
46.832115097062605,16.855183972066456,0.07223717970514969,0.051739802672255815,0.06325848893180556,0.12782599183317692,0.041678096208567474,0.09827302836595186,0.11412024646009832,0.19001839831833203,0.5656940785578732,0.61709062000311,0.017688089290493657,0.0015658376352386608
46.83208901842708,16.85517351005455,0.07223717970514969,0.051739802672255815,0.06325848893180556,0.12782599183317692,0.041678096208567474,0.09827302836595186,0.11412024646009832,0.19001839831833203,0.5656940785578732,0.61709062000311,0.017688089290493657,0.0015658376352386608
46.83204741483538,16.855154574243798,0.07223717970514969,0.051739802672255815,0.06325848893180556,0.12782599183317692,0.041678096208567474,0.09827302836595186,0.11412024646009832,0.19001839831833203,0.5656940785578732,0.61709062000311,0.017688089290493657,0.0015658376352386608
46.83199843097506,16.85512781633482,0.07223717970514969,0.051739802672255815,0.06325848893180556,0.12782599183317692,0.041678096208567474,0.09827302836595186,0.11412024646009832,0.19001839831833203,0.5656940785578732,0.61709062000311,0.017688089290493657,0.0015658376352386608
46.83195845733258,16.855101244088644,0.07223717970514969,0.051739802672255815,0.06325848893180556,0.12782599183317692,0.041678096208567474,0.09827302836595186,0.11412024646009832,0.19001839831833203,0.5656940785578732,0.61709062000311,0.017688089290493657,0.0015658376352386608
46.83192228720128,16.85507356453218,0.020881972029678123,0.05099739871869081,0.07011883960348715,0.059967642914740035,0.03667347329563548,0.10361557601764064,0.04500435591241209,0.06401167125289228,0.09438048944835033,0.15555152858069637,0.0006332925536570278,0.0008442945609220677
46.831878531861676,16.85503658495897,0.020881972029678123,0.05099739871869081,0.07011883960348715,0.059967642914740035,0.03667347329563548,0.10361557601764064,0.04500435591241209,0.06401167125289228,0.09438048944835033,0.15555152858069637,0.0006332925536570278,0.0008442945609220677
46.83184540057673,16.85500722984125,0.020881972029678123,0.05099739871869081,0.07011883960348715,0.059967642914740035,0.03667347329563548,0.10361557601764064,0.04500435591241209,0.06401167125289228,0.09438048944835033,0.15555152858069637,0.0006332925536570278,0.0008442945609220677
46.8318159974756,16.854981667319635,0.020881972029678123,0.05099739871869081,0.07011883960348715,0.059967642914740035,0.03667347329563548,0.10361557601764064,0.04500435591241209,0.06401167125289228,0.09438048944835033,0.15555152858069637,0.0006332925536570278,0.0008442945609220677
46.83178167024186,16.85495251533673,0.020881972029678123,0.05099739871869081,0.07011883960348715,0.059967642914740035,0.03667347329563548,0.10361557601764064,0.04500435591241209,0.06401167125289228,0.09438048944835033,0.15555152858069637,0.0006332925536570278,0.0008442945609220677
46.831741498348514,16.85492025935498,0.01600014311103953,0.09156680429969749,0.14789596891826828,0.053993401582726114,0.02842440922637333,0.10622732490829925,0.01706759735108904,0.046939213222015844,0.030836078672676143,0.12044884876155401,0.001187175174909685,0.0010332561691106935
46.83168712851953,16.854879250589402,0.01600014311103953,0.09156680429969749,0.14789596891826828,0.053993401582726114,0.02842440922637333,0.10622732490829925,0.01706759735108904,0.046939213222015844,0.030836078672676143,0.12044884876155401,0.001187175174909685,0.0010332561691106935
46.83165285617304,16.854853306796215,0.01600014311103953,0.09156680429969749,0.14789596891826828,0.053993401582726114,0.02842440922637333,0.10622732490829925,0.01706759735108904,0.046939213222015844,0.030836078672676143,0.12044884876155401,0.001187175174909685,0.0010332561691106935
46.83161935987854,16.854827875686198,0.01600014311103953,0.09156680429969749,0.14789596891826828,0.053993401582726114,0.02842440922637333,0.10622732490829925,0.01706759735108904,0.046939213222015844,0.030836078672676143,0.12044884876155401,0.001187175174909685,0.0010332561691106935
46.83158983778039,16.854805979657023,0.01600014311103953,0.09156680429969749,0.14789596891826828,0.053993401582726114,0.02842440922637333,0.10622732490829925,0.01706759735108904,0.046939213222015844,0.030836078672676143,0.12044884876155401,0.001187175174909685,0.0010332561691106935
46.83156211403144,16.854785854989327,0.026097995309664612,0.0784389808623231,0.027402861485439384,0.05370004348024404,0.022867013033553055,0.07767806011616063,0.028788228476816318,0.06266489757345507,0.025717614819824583,0.07162575911003806,0.004548286571267401,0.0012735438779115486
46.831520155214676,16.854755701461357,0.026097995309664612,0.0784389808623231,0.027402861485439384,0.05370004348024404,0.022867013033553055,0.07767806011616063,0.028788228476816318,0.06266489757345507,0.025717614819824583,0.07162575911003806,0.004548286571267401,0.0012735438779115486
46.83149372916796,16.85473639248302,0.026097995309664612,0.0784389808623231,0.027402861485439384,0.05370004348024404,0.022867013033553055,0.07767806011616063,0.028788228476816318,0.06266489757345507,0.025717614819824583,0.07162575911003806,0.004548286571267401,0.0012735438779115486
46.83145947166984,16.854711048496657,0.026097995309664612,0.0784389808623231,0.027402861485439384,0.05370004348024404,0.022867013033553055,0.07767806011616063,0.028788228476816318,0.06266489757345507,0.025717614819824583,0.07162575911003806,0.004548286571267401,0.0012735438779115486
46.8314317307397,16.854690216242805,0.026097995309664612,0.0784389808623231,0.027402861485439384,0.05370004348024404,0.022867013033553055,0.07767806011616063,0.028788228476816318,0.06266489757345507,0.025717614819824583,0.07162575911003806,0.004548286571267401,0.0012735438779115486
46.831406672884,16.85467112177676,0.026097995309664612,0.0784389808623231,0.027402861485439384,0.05370004348024404,0.022867013033553055,0.07767806011616063,0.028788228476816318,0.06266489757345507,0.025717614819824583,0.07162575911003806,0.004548286571267401,0.0012735438779115486
46.83137920596282,16.854649892515788,0.026097995309664612,0.0784389808623231,0.027402861485439384,0.05370004348024404,0.022867013033553055,0.07767806011616063,0.028788228476816318,0.06266489757345507,0.025717614819824583,0.07162575911003806,0.004548286571267401,0.0012735438779115486
46.83135101941631,16.85462779262765,0.026097995309664612,0.0784389808623231,0.027402861485439384,0.05370004348024404,0.022867013033553055,0.07767806011616063,0.028788228476816318,0.06266489757345507,0.025717614819824583,0.07162575911003806,0.004548286571267401,0.0012735438779115486
46.83132823303782,16.85460981365514,0.026097995309664612,0.0784389808623231,0.027402861485439384,0.05370004348024404,0.022867013033553055,0.07767806011616063,0.028788228476816318,0.06266489757345507,0.025717614819824583,0.07162575911003806,0.004548286571267401,0.0012735438779115486
46.831301946465395,16.854588998694666,0.026097995309664612,0.0784389808623231,0.027402861485439384,0.05370004348024404,0.022867013033553055,0.07767806011616063,0.028788228476816318,0.06266489757345507,0.025717614819824583,0.07162575911003806,0.004548286571267401,0.0012735438779115486
46.83127548671619,16.85456796714377,0.026097995309664612,0.0784389808623231,0.027402861485439384,0.05370004348024404,0.022867013033553055,0.07767806011616063,0.028788228476816318,0.06266489757345507,0.025717614819824583,0.07162575911003806,0.004548286571267401,0.0012735438779115486
46.83124703898789,16.854545191142076,0.026097995309664612,0.0784389808623231,0.027402861485439384,0.05370004348024404,0.022867013033553055,0.07767806011616063,0.028788228476816318,0.06266489757345507,0.025717614819824583,0.07162575911003806,0.004548286571267401,0.0012735438779115486
46.831219541095706,16.85452254722347,0.026097995309664612,0.0784389808623231,0.027402861485439384,0.05370004348024404,0.022867013033553055,0.07767806011616063,0.028788228476816318,0.06266489757345507,0.025717614819824583,0.07162575911003806,0.004548286571267401,0.0012735438779115486
46.831192291745374,16.85449939057852,0.026097995309664612,0.0784389808623231,0.027402861485439384,0.05370004348024404,0.022867013033553055,0.07767806011616063,0.028788228476816318,0.06266489757345507,0.025717614819824583,0.07162575911003806,0.004548286571267401,0.0012735438779115486
46.83116449939311,16.854475012115632,0.026097995309664612,0.0784389808623231,0.027402861485439384,0.05370004348024404,0.022867013033553055,0.07767806011616063,0.028788228476816318,0.06266489757345507,0.025717614819824583,0.07162575911003806,0.004548286571267401,0.0012735438779115486
46.831124255389724,16.854439219249223,0.026097995309664612,0.0784389808623231,0.027402861485439384,0.05370004348024404,0.022867013033553055,0.07767806011616063,0.028788228476816318,0.06266489757345507,0.025717614819824583,0.07162575911003806,0.004548286571267401,0.0012735438779115486
46.83109267134231,16.85441142399493,0.026097995309664612,0.0784389808623231,0.027402861485439384,0.05370004348024404,0.022867013033553055,0.07767806011616063,0.028788228476816318,0.06266489757345507,0.025717614819824583,0.07162575911003806,0.004548286571267401,0.0012735438779115486
46.831063165290445,16.854385683662112,0.026097995309664612,0.0784389808623231,0.027402861485439384,0.05370004348024404,0.022867013033553055,0.07767806011616063,0.028788228476816318,0.06266489757345507,0.025717614819824583,0.07162575911003806,0.004548286571267401,0.0012735438779115486
46.83103620036085,16.854361473192743,0.026097995309664612,0.0784389808623231,0.027402861485439384,0.05370004348024404,0.022867013033553055,0.07767806011616063,0.028788228476816318,0.06266489757345507,0.025717614819824583,0.07162575911003806,0.004548286571267401,0.0012735438779115486
46.83101352434896,16.854340132036977,0.026097995309664612,0.0784389808623231,0.027402861485439384,0.05370004348024404,0.022867013033553055,0.07767806011616063,0.028788228476816318,0.06266489757345507,0.025717614819824583,0.07162575911003806,0.004548286571267401,0.0012735438779115486
46.83097413198764,16.85430081397537,0.08542432093373856,0.1224952014533624,0.0377337072336457,0.06857185237478032,0.11288696810059773,0.13114956102811948,0.05111423925154426,0.03897170388722957,0.050457844726304595,0.07556540737216379,0.016258495362991243,0.01231054878392231
46.83093998359423,16.85426590242846,0.08542432093373856,0.1224952014533624,0.0377337072336457,0.06857185237478032,0.11288696810059773,0.13114956102811948,0.05111423925154426,0.03897170388722957,0.050457844726304595,0.07556540737216379,0.016258495362991243,0.01231054878392231
46.83091967202376,16.85424558581761,0.08542432093373856,0.1224952014533624,0.0377337072336457,0.06857185237478032,0.11288696810059773,0.13114956102811948,0.05111423925154426,0.03897170388722957,0.050457844726304595,0.07556540737216379,0.016258495362991243,0.01231054878392231
46.83087587783757,16.854202671972565,0.08542432093373856,0.1224952014533624,0.0377337072336457,0.06857185237478032,0.11288696810059773,0.13114956102811948,0.05111423925154426,0.03897170388722957,0.050457844726304595,0.07556540737216379,0.016258495362991243,0.01231054878392231
46.83085751244194,16.85418470789666,0.08542432093373856,0.1224952014533624,0.0377337072336457,0.06857185237478032,0.11288696810059773,0.13114956102811948,0.05111423925154426,0.03897170388722957,0.050457844726304595,0.07556540737216379,0.016258495362991243,0.01231054878392231
46.8308334879563,16.854161056612902,0.0692096451554557,0.14583279653149422,0.024426139494030642,0.04322884834407115,0.19302641130140888,0.12343796935253222,0.23064786362154358,0.08088065361147087,0.14381133211568167,0.14625352568390035,0.013724582580403948,0.00215420872856236
46.830809075984135,16.854136819257526,0.0692096451554557,0.14583279653149422,0.024426139494030642,0.04322884834407115,0.19302641130140888,0.12343796935253222,0.23064786362154358,0.08088065361147087,0.14381133211568167,0.14625352568390035,0.013724582580403948,0.00215420872856236
46.830767002739066,16.854094187990064,0.0692096451554557,0.14583279653149422,0.024426139494030642,0.04322884834407115,0.19302641130140888,0.12343796935253222,0.23064786362154358,0.08088065361147087,0.14381133211568167,0.14625352568390035,0.013724582580403948,0.00215420872856236
46.83073109956837,16.854056273338948,0.0692096451554557,0.14583279653149422,0.024426139494030642,0.04322884834407115,0.19302641130140888,0.12343796935253222,0.23064786362154358,0.08088065361147087,0.14381133211568167,0.14625352568390035,0.013724582580403948,0.00215420872856236
46.83068919336332,16.854010241580966,0.0692096451554557,0.14583279653149422,0.024426139494030642,0.04322884834407115,0.19302641130140888,0.12343796935253222,0.23064786362154358,0.08088065361147087,0.14381133211568167,0.14625352568390035,0.013724582580403948,0.00215420872856236
46.83065278588075,16.853969805665745,0.0693920612617807,0.0629376935187367,0.1692214343569889,0.10251839556430883,0.26208843983854374,0.11282385395716996,0.1457228160880705,0.05761654703227695,0.18170653372628445,0.244473958982099,0.0015643261893441352,0.0031860829942007146
46.83062361670972,16.853937238988447,0.0693920612617807,0.0629376935187367,0.1692214343569889,0.10251839556430883,0.26208843983854374,0.11282385395716996,0.1457228160880705,0.05761654703227695,0.18170653372628445,0.244473958982099,0.0015643261893441352,0.0031860829942007146
46.83058380078348,16.853892495545473,0.0693920612617807,0.0629376935187367,0.1692214343569889,0.10251839556430883,0.26208843983854374,0.11282385395716996,0.1457228160880705,0.05761654703227695,0.18170653372628445,0.244473958982099,0.0015643261893441352,0.0031860829942007146
46.83054737050437,16.853851255494277,0.0693920612617807,0.0629376935187367,0.1692214343569889,0.10251839556430883,0.26208843983854374,0.11282385395716996,0.1457228160880705,0.05761654703227695,0.18170653372628445,0.244473958982099,0.0015643261893441352,0.0031860829942007146
46.830508484582346,16.853807209509206,0.0693920612617807,0.0629376935187367,0.1692214343569889,0.10251839556430883,0.26208843983854374,0.11282385395716996,0.1457228160880705,0.05761654703227695,0.18170653372628445,0.244473958982099,0.0015643261893441352,0.0031860829942007146
46.83047184020424,16.85376614973289,0.050796028454170854,0.1464929337014213,0.1464799681343508,0.21983116150090065,0.587562502600919,0.6986930301053033,0.846443943731532,0.38355031732659306,0.10754483240267715,0.17183620515892475,0.0013780294744679081,0.002870321451385959
46.83044640776181,16.85373789536282,0.050796028454170854,0.1464929337014213,0.1464799681343508,0.21983116150090065,0.587562502600919,0.6986930301053033,0.846443943731532,0.38355031732659306,0.10754483240267715,0.17183620515892475,0.0013780294744679081,0.002870321451385959
46.83041086674601,16.853698178451282,0.050796028454170854,0.1464929337014213,0.1464799681343508,0.21983116150090065,0.587562502600919,0.6986930301053033,0.846443943731532,0.38355031732659306,0.10754483240267715,0.17183620515892475,0.0013780294744679081,0.002870321451385959
46.83038208401014,16.853665580995923,0.050796028454170854,0.1464929337014213,0.1464799681343508,0.21983116150090065,0.587562502600919,0.6986930301053033,0.846443943731532,0.38355031732659306,0.10754483240267715,0.17183620515892475,0.0013780294744679081,0.002870321451385959
46.8303567079427,16.853636530339084,0.050796028454170854,0.1464929337014213,0.1464799681343508,0.21983116150090065,0.587562502600919,0.6986930301053033,0.846443943731532,0.38355031732659306,0.10754483240267715,0.17183620515892475,0.0013780294744679081,0.002870321451385959
46.83031765746594,16.853590637811617,0.04333715249111398,0.10281245936288647,0.12903731760950768,0.20594979213086825,0.01977588813853162,0.09041067963083245,0.031264673781348534,0.035613827688357746,0.021263912257231204,0.08820801253246001,0.011875074991639787,0.009252341490684813
46.830284652236976,16.85355049208181,0.04333715249111398,0.10281245936288647,0.12903731760950768,0.20594979213086825,0.01977588813853162,0.09041067963083245,0.031264673781348534,0.035613827688357746,0.021263912257231204,0.08820801253246001,0.011875074991639787,0.009252341490684813
46.83024647284682,16.85350415981117,0.04333715249111398,0.10281245936288647,0.12903731760950768,0.20594979213086825,0.01977588813853162,0.09041067963083245,0.031264673781348534,0.035613827688357746,0.021263912257231204,0.08820801253246001,0.011875074991639787,0.009252341490684813
46.830212204992336,16.85346531284483,0.04333715249111398,0.10281245936288647,0.12903731760950768,0.20594979213086825,0.01977588813853162,0.09041067963083245,0.031264673781348534,0.035613827688357746,0.021263912257231204,0.08820801253246001,0.011875074991639787,0.009252341490684813
46.830169408913534,16.853420215863594,0.04333715249111398,0.10281245936288647,0.12903731760950768,0.20594979213086825,0.01977588813853162,0.09041067963083245,0.031264673781348534,0.035613827688357746,0.021263912257231204,0.08820801253246001,0.011875074991639787,0.009252341490684813
46.83011728646168,16.85337139734717,0.06322508816265951,0.12454370922125253,0.37666579202356637,0.0523911891372887,0.020632975888661146,0.055511233308428345,0.008395118372139031,0.03795856421885765,0.016590872610029662,0.06896566416638165,0.015785618177338912,0.021545368192077332
46.830059533034074,16.853328701520528,0.06322508816265951,0.12454370922125253,0.37666579202356637,0.0523911891372887,0.020632975888661146,0.055511233308428345,0.008395118372139031,0.03795856421885765,0.016590872610029662,0.06896566416638165,0.015785618177338912,0.021545368192077332
46.83000580450754,16.85329883943465,0.06322508816265951,0.12454370922125253,0.37666579202356637,0.0523911891372887,0.020632975888661146,0.055511233308428345,0.008395118372139031,0.03795856421885765,0.016590872610029662,0.06896566416638165,0.015785618177338912,0.021545368192077332
46.82996226998849,16.853279732363788,0.06322508816265951,0.12454370922125253,0.37666579202356637,0.0523911891372887,0.020632975888661146,0.055511233308428345,0.008395118372139031,0.03795856421885765,0.016590872610029662,0.06896566416638165,0.015785618177338912,0.021545368192077332
46.82994201529276,16.853271942626904,0.06322508816265951,0.12454370922125253,0.37666579202356637,0.0523911891372887,0.020632975888661146,0.055511233308428345,0.008395118372139031,0.03795856421885765,0.016590872610029662,0.06896566416638165,0.015785618177338912,0.021545368192077332
46.82991164579615,16.853260964010676,0.007702915529353105,0.045676231679911417,0.009755957185663647,0.04555136514975521,0.020283500606230263,0.06910702132623325,0.20485574247520047,0.3218912321708291,0.03714249921370026,0.08748405778716643,0.0005998993952618075,0.0013007491711320093
46.82988431415488,16.853251851008434,0.007702915529353105,0.045676231679911417,0.009755957185663647,0.04555136514975521,0.020283500606230263,0.06910702132623325,0.20485574247520047,0.3218912321708291,0.03714249921370026,0.08748405778716643,0.0005998993952618075,0.0013007491711320093
46.82985098529844,16.853241219516395,0.007702915529353105,0.045676231679911417,0.009755957185663647,0.04555136514975521,0.020283500606230263,0.06910702132623325,0.20485574247520047,0.3218912321708291,0.03714249921370026,0.08748405778716643,0.0005998993952618075,0.0013007491711320093
46.829825225318416,16.85323319213964,0.007702915529353105,0.045676231679911417,0.009755957185663647,0.04555136514975521,0.020283500606230263,0.06910702132623325,0.20485574247520047,0.3218912321708291,0.03714249921370026,0.08748405778716643,0.0005998993952618075,0.0013007491711320093
46.82980761213257,16.853227776113744,0.007702915529353105,0.045676231679911417,0.009755957185663647,0.04555136514975521,0.020283500606230263,0.06910702132623325,0.20485574247520047,0.3218912321708291,0.03714249921370026,0.08748405778716643,0.0005998993952618075,0.0013007491711320093
46.82976967340304,16.85321632973736,0.04235683561651415,0.09010159901996091,0.0155868766824697,0.035293510294151204,0.17300070324079309,0.16983336950892697,0.09054292614181347,0.10486040758672001,0.11031475937272717,0.25768769237540873,0.0006515520248955208,0.001131498538812704
46.82974053538769,16.85320754058069,0.04235683561651415,0.09010159901996091,0.0155868766824697,0.035293510294151204,0.17300070324079309,0.16983336950892697,0.09054292614181347,0.10486040758672001,0.11031475937272717,0.25768769237540873,0.0006515520248955208,0.001131498538812704
46.82971616263353,16.853200188459567,0.04235683561651415,0.09010159901996091,0.0155868766824697,0.035293510294151204,0.17300070324079309,0.16983336950892697,0.09054292614181347,0.10486040758672001,0.11031475937272717,0.25768769237540873,0.0006515520248955208,0.001131498538812704
46.82969006216883,16.853192314844108,0.04235683561651415,0.09010159901996091,0.0155868766824697,0.035293510294151204,0.17300070324079309,0.16983336950892697,0.09054292614181347,0.10486040758672001,0.11031475937272717,0.25768769237540873,0.0006515520248955208,0.001131498538812704
46.82966352763014,16.853184184192145,0.04235683561651415,0.09010159901996091,0.0155868766824697,0.035293510294151204,0.17300070324079309,0.16983336950892697,0.09054292614181347,0.10486040758672001,0.11031475937272717,0.25768769237540873,0.0006515520248955208,0.001131498538812704
46.8296333656943,16.8531746340175,0.021455513861015785,0.08440733730846033,0.015297931250078327,0.04345480508898622,0.03406236533558968,0.1739153997345236,0.14187046124915603,0.30205014416385234,0.051884321113449344,0.1571562101620021,0.0011662034722990083,0.0012545528732958449
46.82961130251132,16.85316744436317,0.021455513861015785,0.08440733730846033,0.015297931250078327,0.04345480508898622,0.03406236533558968,0.1739153997345236,0.14187046124915603,0.30205014416385234,0.051884321113449344,0.1571562101620021,0.0011662034722990083,0.0012545528732958449
46.8295864766863,16.85315915443744,0.021455513861015785,0.08440733730846033,0.015297931250078327,0.04345480508898622,0.03406236533558968,0.1739153997345236,0.14187046124915603,0.30205014416385234,0.051884321113449344,0.1571562101620021,0.0011662034722990083,0.0012545528732958449
46.829559108036385,16.85314982657728,0.021455513861015785,0.08440733730846033,0.015297931250078327,0.04345480508898622,0.03406236533558968,0.1739153997345236,0.14187046124915603,0.30205014416385234,0.051884321113449344,0.1571562101620021,0.0011662034722990083,0.0012545528732958449
46.82953164463695,16.853140445246673,0.021455513861015785,0.08440733730846033,0.015297931250078327,0.04345480508898622,0.03406236533558968,0.1739153997345236,0.14187046124915603,0.30205014416385234,0.051884321113449344,0.1571562101620021,0.0011662034722990083,0.0012545528732958449
46.82950623466075,16.85313175945931,0.03348617141095723,0.08538579903942867,0.004628827839242267,0.05171285084654499,0.09250267860594455,0.1432812199638117,0.10012784309951309,0.0454238134053321,0.020589291998575676,0.11016416971077969,0.00016030288232323392,0.0013907040205890543
46.82948050463916,16.853122958517872,0.03348617141095723,0.08538579903942867,0.004628827839242267,0.05171285084654499,0.09250267860594455,0.1432812199638117,0.10012784309951309,0.0454238134053321,0.020589291998575676,0.11016416971077969,0.00016030288232323392,0.0013907040205890543
46.829455948849535,16.853114555541644,0.03348617141095723,0.08538579903942867,0.004628827839242267,0.05171285084654499,0.09250267860594455,0.1432812199638117,0.10012784309951309,0.0454238134053321,0.020589291998575676,0.11016416971077969,0.00016030288232323392,0.0013907040205890543
46.829429684145495,16.85310559229873,0.03348617141095723,0.08538579903942867,0.004628827839242267,0.05171285084654499,0.09250267860594455,0.1432812199638117,0.10012784309951309,0.0454238134053321,0.020589291998575676,0.11016416971077969,0.00016030288232323392,0.0013907040205890543
46.8294039435663,16.853096841699063,0.03348617141095723,0.08538579903942867,0.004628827839242267,0.05171285084654499,0.09250267860594455,0.1432812199638117,0.10012784309951309,0.0454238134053321,0.020589291998575676,0.11016416971077969,0.00016030288232323392,0.0013907040205890543
46.8293767923522,16.853087647889232,0.03185809694808269,0.04713138981514431,0.017689950668382137,0.06420469746908494,0.02730870732510361,0.09827848198161732,0.04318963032696266,0.059343874791986814,0.03387974551673405,0.06454969215462351,0.00024677248440847067,0.0008927733481817952
46.82935073678422,16.853078860256723,0.03185809694808269,0.04713138981514431,0.017689950668382137,0.06420469746908494,0.02730870732510361,0.09827848198161732,0.04318963032696266,0.059343874791986814,0.03387974551673405,0.06454969215462351,0.00024677248440847067,0.0008927733481817952
46.82932373172897,16.853069791643716,0.03185809694808269,0.04713138981514431,0.017689950668382137,0.06420469746908494,0.02730870732510361,0.09827848198161732,0.04318963032696266,0.059343874791986814,0.03387974551673405,0.06454969215462351,0.00024677248440847067,0.0008927733481817952
46.82929670501608,16.853060757896944,0.03185809694808269,0.04713138981514431,0.017689950668382137,0.06420469746908494,0.02730870732510361,0.09827848198161732,0.04318963032696266,0.059343874791986814,0.03387974551673405,0.06454969215462351,0.00024677248440847067,0.0008927733481817952
46.82927236264362,16.85305265849693,0.03185809694808269,0.04713138981514431,0.017689950668382137,0.06420469746908494,0.02730870732510361,0.09827848198161732,0.04318963032696266,0.059343874791986814,0.03387974551673405,0.06454969215462351,0.00024677248440847067,0.0008927733481817952
46.82924433687048,16.853043378489946,0.03185809694808269,0.04713138981514431,0.017689950668382137,0.06420469746908494,0.02730870732510361,0.09827848198161732,0.04318963032696266,0.059343874791986814,0.03387974551673405,0.06454969215462351,0.00024677248440847067,0.0008927733481817952
46.82921412493645,16.85303336962321,0.03185809694808269,0.04713138981514431,0.017689950668382137,0.06420469746908494,0.02730870732510361,0.09827848198161732,0.04318963032696266,0.059343874791986814,0.03387974551673405,0.06454969215462351,0.00024677248440847067,0.0008927733481817952
46.82919031549846,16.853025386308158,0.03185809694808269,0.04713138981514431,0.017689950668382137,0.06420469746908494,0.02730870732510361,0.09827848198161732,0.04318963032696266,0.059343874791986814,0.03387974551673405,0.06454969215462351,0.00024677248440847067,0.0008927733481817952
46.82916253076258,16.853015954833296,0.03185809694808269,0.04713138981514431,0.017689950668382137,0.06420469746908494,0.02730870732510361,0.09827848198161732,0.04318963032696266,0.059343874791986814,0.03387974551673405,0.06454969215462351,0.00024677248440847067,0.0008927733481817952
46.829134518088765,16.85300631704452,0.03185809694808269,0.04713138981514431,0.017689950668382137,0.06420469746908494,0.02730870732510361,0.09827848198161732,0.04318963032696266,0.059343874791986814,0.03387974551673405,0.06454969215462351,0.00024677248440847067,0.0008927733481817952
46.82910036216701,16.852992859054027,0.04269630116700304,0.07940654306507093,0.07965301471497965,0.09385826391983784,0.021047348267005262,0.07792582341222144,0.036795461072324814,0.02477211957180185,0.045984351520322875,0.0760821751207298,0.024855445453664846,0.0042777723978155305
46.82906653150338,16.852975079604835,0.04269630116700304,0.07940654306507093,0.07965301471497965,0.09385826391983784,0.021047348267005262,0.07792582341222144,0.036795461072324814,0.02477211957180185,0.045984351520322875,0.0760821751207298,0.024855445453664846,0.0042777723978155305
46.82902902931519,16.85294878907521,0.04269630116700304,0.07940654306507093,0.07965301471497965,0.09385826391983784,0.021047348267005262,0.07792582341222144,0.036795461072324814,0.02477211957180185,0.045984351520322875,0.0760821751207298,0.024855445453664846,0.0042777723978155305
46.82899452014583,16.85292615428607,0.04269630116700304,0.07940654306507093,0.07965301471497965,0.09385826391983784,0.021047348267005262,0.07792582341222144,0.036795461072324814,0.02477211957180185,0.045984351520322875,0.0760821751207298,0.024855445453664846,0.0042777723978155305
46.82893370734598,16.85289894130938,0.04269630116700304,0.07940654306507093,0.07965301471497965,0.09385826391983784,0.021047348267005262,0.07792582341222144,0.036795461072324814,0.02477211957180185,0.045984351520322875,0.0760821751207298,0.024855445453664846,0.0042777723978155305
46.82886997346927,16.852868829379922,0.008260288558237778,0.019373221780661684,0.39616160624011243,0.24632725698794516,0.02872341862135735,0.03944360465172225,0.044903200604691246,0.01659299004008017,0.040048071305058566,0.015198445275623935,0.024550763104083037,0.0004933560778928802
46.8288608778568,16.852837733202332,0.008260288558237778,0.019373221780661684,0.39616160624011243,0.24632725698794516,0.02872341862135735,0.03944360465172225,0.044903200604691246,0.01659299004008017,0.040048071305058566,0.015198445275623935,0.024550763104083037,0.0004933560778928802
46.82886152381894,16.85283003550842,0.008260288558237778,0.019373221780661684,0.39616160624011243,0.24632725698794516,0.02872341862135735,0.03944360465172225,0.044903200604691246,0.01659299004008017,0.040048071305058566,0.015198445275623935,0.024550763104083037,0.0004933560778928802
46.82886097606745,16.85282700455619,0.008260288558237778,0.019373221780661684,0.39616160624011243,0.24632725698794516,0.02872341862135735,0.03944360465172225,0.044903200604691246,0.01659299004008017,0.040048071305058566,0.015198445275623935,0.024550763104083037,0.0004933560778928802
46.828852846130104,16.852822460767992,0.008260288558237778,0.019373221780661684,0.39616160624011243,0.24632725698794516,0.02872341862135735,0.03944360465172225,0.044903200604691246,0.01659299004008017,0.040048071305058566,0.015198445275623935,0.024550763104083037,0.0004933560778928802
46.82877519274484,16.852792634143736,0.006549629929952258,0.019373221780661684,0.14239071846910395,0.3704944497637564,0.048234504483772755,0.019503095822385068,0.03609231447393348,0.04974676629622602,0.06098397903165278,0.09349185867678406,0.002639147546867765,0.0004933560778928802
46.8287158465562,16.852807826063113,0.006549629929952258,0.019373221780661684,0.14239071846910395,0.3704944497637564,0.048234504483772755,0.019503095822385068,0.03609231447393348,0.04974676629622602,0.06098397903165278,0.09349185867678406,0.002639147546867765,0.0004933560778928802
46.82865102822608,16.85284804510639,0.006549629929952258,0.019373221780661684,0.14239071846910395,0.3704944497637564,0.048234504483772755,0.019503095822385068,0.03609231447393348,0.04974676629622602,0.06098397903165278,0.09349185867678406,0.002639147546867765,0.0004933560778928802
46.828602338802526,16.8528801098738,0.006549629929952258,0.019373221780661684,0.14239071846910395,0.3704944497637564,0.048234504483772755,0.019503095822385068,0.03609231447393348,0.04974676629622602,0.06098397903165278,0.09349185867678406,0.002639147546867765,0.0004933560778928802
46.82855424039406,16.85290490370629,0.006549629929952258,0.019373221780661684,0.14239071846910395,0.3704944497637564,0.048234504483772755,0.019503095822385068,0.03609231447393348,0.04974676629622602,0.06098397903165278,0.09349185867678406,0.002639147546867765,0.0004933560778928802
46.82850427924056,16.852928365478952,0.008546191452230813,0.027809495025916276,0.014713327912457993,0.021979278094953675,0.008675552062898067,0.017546049261583995,0.0027613004474530663,0.014053068465915848,0.011172677290286108,0.044442020534037674,0.0029025350020024567,0.004889469851848292
46.828472565487864,16.852942144166715,0.008546191452230813,0.027809495025916276,0.014713327912457993,0.021979278094953675,0.008675552062898067,0.017546049261583995,0.0027613004474530663,0.014053068465915848,0.011172677290286108,0.044442020534037674,0.0029025350020024567,0.004889469851848292
46.82841738603171,16.852961664684635,0.008546191452230813,0.027809495025916276,0.014713327912457993,0.021979278094953675,0.008675552062898067,0.017546049261583995,0.0027613004474530663,0.014053068465915848,0.011172677290286108,0.044442020534037674,0.0029025350020024567,0.004889469851848292
46.82838989930668,16.85296885663238,0.008546191452230813,0.027809495025916276,0.014713327912457993,0.021979278094953675,0.008675552062898067,0.017546049261583995,0.0027613004474530663,0.014053068465915848,0.011172677290286108,0.044442020534037674,0.0029025350020024567,0.004889469851848292
46.82835412595526,16.852976285242175,0.008546191452230813,0.027809495025916276,0.014713327912457993,0.021979278094953675,0.008675552062898067,0.017546049261583995,0.0027613004474530663,0.014053068465915848,0.011172677290286108,0.044442020534037674,0.0029025350020024567,0.004889469851848292
46.82833462110573,16.85297934802806,0.0047785114649997115,0.01274651745985677,0.2157315940154696,0.10644382472405109,0.007933118994218006,0.01898078483347096,0.018766015750040433,0.022734650645826998,0.02496760809089987,0.048517398903779846,0.00044226785774270595,0.0005676007431657111
46.82831209023696,16.85298279907569,0.0047785114649997115,0.01274651745985677,0.2157315940154696,0.10644382472405109,0.007933118994218006,0.01898078483347096,0.018766015750040433,0.022734650645826998,0.02496760809089987,0.048517398903779846,0.00044226785774270595,0.0005676007431657111
46.82828053672156,16.852987379977222,0.0047785114649997115,0.01274651745985677,0.2157315940154696,0.10644382472405109,0.007933118994218006,0.01898078483347096,0.018766015750040433,0.022734650645826998,0.02496760809089987,0.048517398903779846,0.00044226785774270595,0.0005676007431657111
46.82824349359105,16.852992457474922,0.0047785114649997115,0.01274651745985677,0.2157315940154696,0.10644382472405109,0.007933118994218006,0.01898078483347096,0.018766015750040433,0.022734650645826998,0.02496760809089987,0.048517398903779846,0.00044226785774270595,0.0005676007431657111
46.82822078049359,16.852996472886016,0.0047785114649997115,0.01274651745985677,0.2157315940154696,0.10644382472405109,0.007933118994218006,0.01898078483347096,0.018766015750040433,0.022734650645826998,0.02496760809089987,0.048517398903779846,0.00044226785774270595,0.0005676007431657111
46.828203469894916,16.853000146385536,0.0047785114649997115,0.01274651745985677,0.2157315940154696,0.10644382472405109,0.007933118994218006,0.01898078483347096,0.018766015750040433,0.022734650645826998,0.02496760809089987,0.048517398903779846,0.00044226785774270595,0.0005676007431657111
46.8281622587029,16.85301283913623,0.0047785114649997115,0.01274651745985677,0.2157315940154696,0.10644382472405109,0.007933118994218006,0.01898078483347096,0.018766015750040433,0.022734650645826998,0.02496760809089987,0.048517398903779846,0.00044226785774270595,0.0005676007431657111
46.828134813968845,16.853022723690074,0.0047785114649997115,0.01274651745985677,0.2157315940154696,0.10644382472405109,0.007933118994218006,0.01898078483347096,0.018766015750040433,0.022734650645826998,0.02496760809089987,0.048517398903779846,0.00044226785774270595,0.0005676007431657111
46.82810805330054,16.853030459744026,0.0047785114649997115,0.01274651745985677,0.2157315940154696,0.10644382472405109,0.007933118994218006,0.01898078483347096,0.018766015750040433,0.022734650645826998,0.02496760809089987,0.048517398903779846,0.00044226785774270595,0.0005676007431657111
46.828081349870374,16.85303617893674,0.0047785114649997115,0.01274651745985677,0.2157315940154696,0.10644382472405109,0.007933118994218006,0.01898078483347096,0.018766015750040433,0.022734650645826998,0.02496760809089987,0.048517398903779846,0.00044226785774270595,0.0005676007431657111
46.82805378146591,16.853040093050904,0.008921037928903097,0.026388506733135315,0.007230260807907727,0.013185084520220037,0.011084474520998538,0.035716793210441765,0.01377864735704641,0.06178245526685473,0.043116118924609405,0.09698620926363916,0.00047543250692921467,0.0006344947982915291
46.82802643154434,16.853043069740654,0.008921037928903097,0.026388506733135315,0.007230260807907727,0.013185084520220037,0.011084474520998538,0.035716793210441765,0.01377864735704641,0.06178245526685473,0.043116118924609405,0.09698620926363916,0.00047543250692921467,0.0006344947982915291
46.8279887200878,16.853047018490752,0.008921037928903097,0.026388506733135315,0.007230260807907727,0.013185084520220037,0.011084474520998538,0.035716793210441765,0.01377864735704641,0.06178245526685473,0.043116118924609405,0.09698620926363916,0.00047543250692921467,0.0006344947982915291
46.82796886721838,16.85304901774577,0.008921037928903097,0.026388506733135315,0.007230260807907727,0.013185084520220037,0.011084474520998538,0.035716793210441765,0.01377864735704641,0.06178245526685473,0.043116118924609405,0.09698620926363916,0.00047543250692921467,0.0006344947982915291
46.827942446912466,16.853051609715557,0.008921037928903097,0.026388506733135315,0.007230260807907727,0.013185084520220037,0.011084474520998538,0.035716793210441765,0.01377864735704641,0.06178245526685473,0.043116118924609405,0.09698620926363916,0.00047543250692921467,0.0006344947982915291
46.82791688192635,16.8530539759306,0.00937048745630335,0.015878223656655404,0.033008947249545006,0.014695094799376382,0.036647526268126826,0.03456386009736479,0.0257043724532453,0.02168506501433309,0.022727514051455733,0.03234224024176922,0.00035891818551250684,0.0004664069418154009
46.82788955192127,16.85305634147975,0.00937048745630335,0.015878223656655404,0.033008947249545006,0.014695094799376382,0.036647526268126826,0.03456386009736479,0.0257043724532453,0.02168506501433309,0.022727514051455733,0.03234224024176922,0.00035891818551250684,0.0004664069418154009
46.82786209543101,16.853058558316437,0.00937048745630335,0.015878223656655404,0.033008947249545006,0.014695094799376382,0.036647526268126826,0.03456386009736479,0.0257043724532453,0.02168506501433309,0.022727514051455733,0.03234224024176922,0.00035891818551250684,0.0004664069418154009
46.82783632195156,16.853060502563014,0.00937048745630335,0.015878223656655404,0.033008947249545006,0.014695094799376382,0.036647526268126826,0.03456386009736479,0.0257043724532453,0.02168506501433309,0.022727514051455733,0.03234224024176922,0.00035891818551250684,0.0004664069418154009
46.82781067674704,16.85306228146591,0.00937048745630335,0.015878223656655404,0.033008947249545006,0.014695094799376382,0.036647526268126826,0.03456386009736479,0.0257043724532453,0.02168506501433309,0.022727514051455733,0.03234224024176922,0.00035891818551250684,0.0004664069418154009
46.82778411051183,16.853063943332277,0.00937048745630335,0.015878223656655404,0.033008947249545006,0.014695094799376382,0.036647526268126826,0.03456386009736479,0.0257043724532453,0.02168506501433309,0.022727514051455733,0.03234224024176922,0.00035891818551250684,0.0004664069418154009
46.82775695045933,16.853065459111566,0.00937048745630335,0.015878223656655404,0.033008947249545006,0.014695094799376382,0.036647526268126826,0.03456386009736479,0.0257043724532453,0.02168506501433309,0.022727514051455733,0.03234224024176922,0.00035891818551250684,0.0004664069418154009
46.827729069888406,16.85306682963638,0.00937048745630335,0.015878223656655404,0.033008947249545006,0.014695094799376382,0.036647526268126826,0.03456386009736479,0.0257043724532453,0.02168506501433309,0.022727514051455733,0.03234224024176922,0.00035891818551250684,0.0004664069418154009
46.82770206777757,16.853067989292814,0.00937048745630335,0.015878223656655404,0.033008947249545006,0.014695094799376382,0.036647526268126826,0.03456386009736479,0.0257043724532453,0.02168506501433309,0.022727514051455733,0.03234224024176922,0.00035891818551250684,0.0004664069418154009
46.82767487630208,16.853069053390055,0.00937048745630335,0.015878223656655404,0.033008947249545006,0.014695094799376382,0.036647526268126826,0.03456386009736479,0.0257043724532453,0.02168506501433309,0.022727514051455733,0.03234224024176922,0.00035891818551250684,0.0004664069418154009
46.827646806014194,16.853070060535337,0.00937048745630335,0.015878223656655404,0.033008947249545006,0.014695094799376382,0.036647526268126826,0.03456386009736479,0.0257043724532453,0.02168506501433309,0.022727514051455733,0.03234224024176922,0.00035891818551250684,0.0004664069418154009
46.82761964674845,16.85307094646021,0.00937048745630335,0.015878223656655404,0.033008947249545006,0.014695094799376382,0.036647526268126826,0.03456386009736479,0.0257043724532453,0.02168506501433309,0.022727514051455733,0.03234224024176922,0.00035891818551250684,0.0004664069418154009
46.827592979693584,16.853071731368512,0.00937048745630335,0.015878223656655404,0.033008947249545006,0.014695094799376382,0.036647526268126826,0.03456386009736479,0.0257043724532453,0.02168506501433309,0.022727514051455733,0.03234224024176922,0.00035891818551250684,0.0004664069418154009
46.82756600157251,16.853072455568043,0.00937048745630335,0.015878223656655404,0.033008947249545006,0.014695094799376382,0.036647526268126826,0.03456386009736479,0.0257043724532453,0.02168506501433309,0.022727514051455733,0.03234224024176922,0.00035891818551250684,0.0004664069418154009
46.82754027065774,16.853073121993873,0.00937048745630335,0.015878223656655404,0.033008947249545006,0.014695094799376382,0.036647526268126826,0.03456386009736479,0.0257043724532453,0.02168506501433309,0.022727514051455733,0.03234224024176922,0.00035891818551250684,0.0004664069418154009
46.827514155305394,16.853073776217375,0.00937048745630335,0.015878223656655404,0.033008947249545006,0.014695094799376382,0.036647526268126826,0.03456386009736479,0.0257043724532453,0.02168506501433309,0.022727514051455733,0.03234224024176922,0.00035891818551250684,0.0004664069418154009
46.827486362729594,16.853074447431183,0.00937048745630335,0.015878223656655404,0.033008947249545006,0.014695094799376382,0.036647526268126826,0.03456386009736479,0.0257043724532453,0.02168506501433309,0.022727514051455733,0.03234224024176922,0.00035891818551250684,0.0004664069418154009
46.82745933770415,16.853075075179184,0.00937048745630335,0.015878223656655404,0.033008947249545006,0.014695094799376382,0.036647526268126826,0.03456386009736479,0.0257043724532453,0.02168506501433309,0.022727514051455733,0.03234224024176922,0.00035891818551250684,0.0004664069418154009
46.82743208702072,16.85307575232682,0.00937048745630335,0.015878223656655404,0.033008947249545006,0.014695094799376382,0.036647526268126826,0.03456386009736479,0.0257043724532453,0.02168506501433309,0.022727514051455733,0.03234224024176922,0.00035891818551250684,0.0004664069418154009
46.827405523450054,16.85307650570164,0.00937048745630335,0.015878223656655404,0.033008947249545006,0.014695094799376382,0.036647526268126826,0.03456386009736479,0.0257043724532453,0.02168506501433309,0.022727514051455733,0.03234224024176922,0.00035891818551250684,0.0004664069418154009
46.827378913855064,16.853077353221327,0.00937048745630335,0.015878223656655404,0.033008947249545006,0.014695094799376382,0.036647526268126826,0.03456386009736479,0.0257043724532453,0.02168506501433309,0.022727514051455733,0.03234224024176922,0.00035891818551250684,0.0004664069418154009
46.82735166844491,16.85307831777177,0.00937048745630335,0.015878223656655404,0.033008947249545006,0.014695094799376382,0.036647526268126826,0.03456386009736479,0.0257043724532453,0.02168506501433309,0.022727514051455733,0.03234224024176922,0.00035891818551250684,0.0004664069418154009
46.82732347845274,16.853079437232207,0.00937048745630335,0.015878223656655404,0.033008947249545006,0.014695094799376382,0.036647526268126826,0.03456386009736479,0.0257043724532453,0.02168506501433309,0.022727514051455733,0.03234224024176922,0.00035891818551250684,0.0004664069418154009
46.82729710235968,16.85308066508996,0.00937048745630335,0.015878223656655404,0.033008947249545006,0.014695094799376382,0.036647526268126826,0.03456386009736479,0.0257043724532453,0.02168506501433309,0.022727514051455733,0.03234224024176922,0.00035891818551250684,0.0004664069418154009
46.82727042308993,16.853082088484083,0.00937048745630335,0.015878223656655404,0.033008947249545006,0.014695094799376382,0.036647526268126826,0.03456386009736479,0.0257043724532453,0.02168506501433309,0.022727514051455733,0.03234224024176922,0.00035891818551250684,0.0004664069418154009
46.827243743425,16.853083690061748,0.00937048745630335,0.015878223656655404,0.033008947249545006,0.014695094799376382,0.036647526268126826,0.03456386009736479,0.0257043724532453,0.02168506501433309,0.022727514051455733,0.03234224024176922,0.00035891818551250684,0.0004664069418154009
46.82721646969145,16.853085507236127,0.00937048745630335,0.015878223656655404,0.033008947249545006,0.014695094799376382,0.036647526268126826,0.03456386009736479,0.0257043724532453,0.02168506501433309,0.022727514051455733,0.03234224024176922,0.00035891818551250684,0.0004664069418154009
46.827189467630845,16.85308731995862,0.00937048745630335,0.015878223656655404,0.033008947249545006,0.014695094799376382,0.036647526268126826,0.03456386009736479,0.0257043724532453,0.02168506501433309,0.022727514051455733,0.03234224024176922,0.00035891818551250684,0.0004664069418154009
46.82716314165397,16.853088901249166,0.00937048745630335,0.015878223656655404,0.033008947249545006,0.014695094799376382,0.036647526268126826,0.03456386009736479,0.0257043724532453,0.02168506501433309,0.022727514051455733,0.03234224024176922,0.00035891818551250684,0.0004664069418154009
46.827138017655436,16.85309023849614,0.00937048745630335,0.015878223656655404,0.033008947249545006,0.014695094799376382,0.036647526268126826,0.03456386009736479,0.0257043724532453,0.02168506501433309,0.022727514051455733,0.03234224024176922,0.00035891818551250684,0.0004664069418154009
46.827111335205885,16.853091474965083,0.00937048745630335,0.015878223656655404,0.033008947249545006,0.014695094799376382,0.036647526268126826,0.03456386009736479,0.0257043724532453,0.02168506501433309,0.022727514051455733,0.03234224024176922,0.00035891818551250684,0.0004664069418154009
46.827084582595646,16.853092526364083,0.00937048745630335,0.015878223656655404,0.033008947249545006,0.014695094799376382,0.036647526268126826,0.03456386009736479,0.0257043724532453,0.02168506501433309,0.022727514051455733,0.03234224024176922,0.00035891818551250684,0.0004664069418154009
46.827057807595686,16.853093506782308,0.00937048745630335,0.015878223656655404,0.033008947249545006,0.014695094799376382,0.036647526268126826,0.03456386009736479,0.0257043724532453,0.02168506501433309,0.022727514051455733,0.03234224024176922,0.00035891818551250684,0.0004664069418154009
46.82703007603798,16.85309452296733,0.00937048745630335,0.015878223656655404,0.033008947249545006,0.014695094799376382,0.036647526268126826,0.03456386009736479,0.0257043724532453,0.02168506501433309,0.022727514051455733,0.03234224024176922,0.00035891818551250684,0.0004664069418154009
46.82700285049088,16.853095521361464,0.00937048745630335,0.015878223656655404,0.033008947249545006,0.014695094799376382,0.036647526268126826,0.03456386009736479,0.0257043724532453,0.02168506501433309,0.022727514051455733,0.03234224024176922,0.00035891818551250684,0.0004664069418154009
46.82697646144354,16.853096489808,0.0057676446014083265,0.01671079171193764,0.01718005595646902,0.028738681112196376,0.015159581765195588,0.04074701745883549,0.042193496382422924,0.08286811510410542,0.030790312501108922,0.05923153616874681,0.00010329242587332472,0.00036152545738719167
46.82694972765203,16.85309727651269,0.0057676446014083265,0.01671079171193764,0.01718005595646902,0.028738681112196376,0.015159581765195588,0.04074701745883549,0.042193496382422924,0.08286811510410542,0.030790312501108922,0.05923153616874681,0.00010329242587332472,0.00036152545738719167
46.82692167964784,16.853096878213893,0.0057676446014083265,0.01671079171193764,0.01718005595646902,0.028738681112196376,0.015159581765195588,0.04074701745883549,0.042193496382422924,0.08286811510410542,0.030790312501108922,0.05923153616874681,0.00010329242587332472,0.00036152545738719167
46.826894269388205,16.85309513241935,0.0057676446014083265,0.01671079171193764,0.01718005595646902,0.028738681112196376,0.015159581765195588,0.04074701745883549,0.042193496382422924,0.08286811510410542,0.030790312501108922,0.05923153616874681,0.00010329242587332472,0.00036152545738719167
46.826867098481884,16.853092059950924,0.0057676446014083265,0.01671079171193764,0.01718005595646902,0.028738681112196376,0.015159581765195588,0.04074701745883549,0.042193496382422924,0.08286811510410542,0.030790312501108922,0.05923153616874681,0.00010329242587332472,0.00036152545738719167
46.82684010411586,16.853087688225713,0.06290766354188876,0.09419026932440679,0.03791450071540514,0.07039441477184646,0.14614707130304463,0.12400436522031386,0.371711777880719,0.3894862683280751,0.03530561245947577,0.046925742693175176,0.0005800959331544161,0.0011262264563667726
46.82681425337543,16.8530836979063,0.06290766354188876,0.09419026932440679,0.03791450071540514,0.07039441477184646,0.14614707130304463,0.12400436522031386,0.371711777880719,0.3894862683280751,0.03530561245947577,0.046925742693175176,0.0005800959331544161,0.0011262264563667726
46.82678742570703,16.853080682756588,0.06290766354188876,0.09419026932440679,0.03791450071540514,0.07039441477184646,0.14614707130304463,0.12400436522031386,0.371711777880719,0.3894862683280751,0.03530561245947577,0.046925742693175176,0.0005800959331544161,0.0011262264563667726
46.826760324691996,16.85307877924979,0.06290766354188876,0.09419026932440679,0.03791450071540514,0.07039441477184646,0.14614707130304463,0.12400436522031386,0.371711777880719,0.3894862683280751,0.03530561245947577,0.046925742693175176,0.0005800959331544161,0.0011262264563667726
46.826734306166884,16.853078011332972,0.06290766354188876,0.09419026932440679,0.03791450071540514,0.07039441477184646,0.14614707130304463,0.12400436522031386,0.371711777880719,0.3894862683280751,0.03530561245947577,0.046925742693175176,0.0005800959331544161,0.0011262264563667726
46.826707529732616,16.853078116264243,0.007477547138358606,0.015352773409965222,0.020890664089063624,0.029595657829285048,0.014553265717434795,0.046435233154968295,0.025206599447291103,0.018738537311913786,0.013269013540349166,0.03751134985274386,0.00032567342049017004,0.0007014298985973629
46.8266802804634,16.853078298244142,0.007477547138358606,0.015352773409965222,0.020890664089063624,0.029595657829285048,0.014553265717434795,0.046435233154968295,0.025206599447291103,0.018738537311913786,0.013269013540349166,0.03751134985274386,0.00032567342049017004,0.0007014298985973629
46.82665227985349,16.853078446399483,0.007477547138358606,0.015352773409965222,0.020890664089063624,0.029595657829285048,0.014553265717434795,0.046435233154968295,0.025206599447291103,0.018738537311913786,0.013269013540349166,0.03751134985274386,0.00032567342049017004,0.0007014298985973629
46.82662465425848,16.853078555188823,0.007477547138358606,0.015352773409965222,0.020890664089063624,0.029595657829285048,0.014553265717434795,0.046435233154968295,0.025206599447291103,0.018738537311913786,0.013269013540349166,0.03751134985274386,0.00032567342049017004,0.0007014298985973629
46.826596162064426,16.85307862977436,0.007477547138358606,0.015352773409965222,0.020890664089063624,0.029595657829285048,0.014553265717434795,0.046435233154968295,0.025206599447291103,0.018738537311913786,0.013269013540349166,0.03751134985274386,0.00032567342049017004,0.0007014298985973629
46.82656827172861,16.853078758689097,0.007477547138358606,0.015352773409965222,0.020890664089063624,0.029595657829285048,0.014553265717434795,0.046435233154968295,0.025206599447291103,0.018738537311913786,0.013269013540349166,0.03751134985274386,0.00032567342049017004,0.0007014298985973629
46.82654124739296,16.853079013727193,0.007477547138358606,0.015352773409965222,0.020890664089063624,0.029595657829285048,0.014553265717434795,0.046435233154968295,0.025206599447291103,0.018738537311913786,0.013269013540349166,0.03751134985274386,0.00032567342049017004,0.0007014298985973629
46.82651325277354,16.853079411167847,0.007477547138358606,0.015352773409965222,0.020890664089063624,0.029595657829285048,0.014553265717434795,0.046435233154968295,0.025206599447291103,0.018738537311913786,0.013269013540349166,0.03751134985274386,0.00032567342049017004,0.0007014298985973629
46.82648473968311,16.853079953490564,0.007477547138358606,0.015352773409965222,0.020890664089063624,0.029595657829285048,0.014553265717434795,0.046435233154968295,0.025206599447291103,0.018738537311913786,0.013269013540349166,0.03751134985274386,0.00032567342049017004,0.0007014298985973629
