lat,lon,std_acc_x,median_acc_x,std_acc_y,median_acc_y,std_acc_z,median_acc_z,std_gyr_x,median_gyr_x,std_gyr_y,median_gyr_y,std_gyr_z,median_gyr_z
46.89954468698876,16.85745898441142,0.02391432489574859,0.033824514305945706,0.020478209452165004,0.03990233088120206,0.05759815464454346,0.02062119682817048,0.08087462699147226,0.15475375113486312,0.23509677721778843,0.13122189463907322,0.0016757634928306867,0.0024692703509111664
46.89951766427963,16.857451545339362,0.02391432489574859,0.033824514305945706,0.020478209452165004,0.03990233088120206,0.05759815464454346,0.02062119682817048,0.08087462699147226,0.15475375113486312,0.23509677721778843,0.13122189463907322,0.0016757634928306867,0.0024692703509111664
46.899491449283225,16.85744432551419,0.02391432489574859,0.033824514305945706,0.020478209452165004,0.03990233088120206,0.05759815464454346,0.02062119682817048,0.08087462699147226,0.15475375113486312,0.23509677721778843,0.13122189463907322,0.0016757634928306867,0.0024692703509111664
46.899464735062985,16.857436965074776,0.02391432489574859,0.033824514305945706,0.020478209452165004,0.03990233088120206,0.05759815464454346,0.02062119682817048,0.08087462699147226,0.15475375113486312,0.23509677721778843,0.13122189463907322,0.0016757634928306867,0.0024692703509111664
46.8994385844586,16.85742969967791,0.02391432489574859,0.033824514305945706,0.020478209452165004,0.03990233088120206,0.05759815464454346,0.02062119682817048,0.08087462699147226,0.15475375113486312,0.23509677721778843,0.13122189463907322,0.0016757634928306867,0.0024692703509111664
46.89941254991806,16.857422311925475,0.015051900259885655,0.042371480491008244,0.004338354422116843,0.012559449138751313,0.006411133887375877,0.021475444796755234,0.0418195594146653,0.04363306464378854,0.01706195017922783,0.027384233382833217,0.0004087262452898471,0.000900659665641172
46.89938576189826,16.857414549428785,0.015051900259885655,0.042371480491008244,0.004338354422116843,0.012559449138751313,0.006411133887375877,0.021475444796755234,0.0418195594146653,0.04363306464378854,0.01706195017922783,0.027384233382833217,0.0004087262452898471,0.000900659665641172
46.89935914922305,16.857406677525653,0.015051900259885655,0.042371480491008244,0.004338354422116843,0.012559449138751313,0.006411133887375877,0.021475444796755234,0.0418195594146653,0.04363306464378854,0.01706195017922783,0.027384233382833217,0.0004087262452898471,0.000900659665641172
46.899332870126486,16.857398748861282,0.015051900259885655,0.042371480491008244,0.004338354422116843,0.012559449138751313,0.006411133887375877,0.021475444796755234,0.0418195594146653,0.04363306464378854,0.01706195017922783,0.027384233382833217,0.0004087262452898471,0.000900659665641172
46.89930708210526,16.857390819480475,0.015051900259885655,0.042371480491008244,0.004338354422116843,0.012559449138751313,0.006411133887375877,0.021475444796755234,0.0418195594146653,0.04363306464378854,0.01706195017922783,0.027384233382833217,0.0004087262452898471,0.000900659665641172
46.89928025969211,16.85738240632034,0.015051900259885655,0.042371480491008244,0.004338354422116843,0.012559449138751313,0.006411133887375877,0.021475444796755234,0.0418195594146653,0.04363306464378854,0.01706195017922783,0.027384233382833217,0.0004087262452898471,0.000900659665641172
46.89925287058984,16.857373686099102,0.015051900259885655,0.042371480491008244,0.004338354422116843,0.012559449138751313,0.006411133887375877,0.021475444796755234,0.0418195594146653,0.04363306464378854,0.01706195017922783,0.027384233382833217,0.0004087262452898471,0.000900659665641172
46.899226936155465,16.857365350104946,0.015051900259885655,0.042371480491008244,0.004338354422116843,0.012559449138751313,0.006411133887375877,0.021475444796755234,0.0418195594146653,0.04363306464378854,0.01706195017922783,0.027384233382833217,0.0004087262452898471,0.000900659665641172
46.89919970172938,16.85735651523324,0.015051900259885655,0.042371480491008244,0.004338354422116843,0.012559449138751313,0.006411133887375877,0.021475444796755234,0.0418195594146653,0.04363306464378854,0.01706195017922783,0.027384233382833217,0.0004087262452898471,0.000900659665641172
46.899171949173834,16.857347428499764,0.015051900259885655,0.042371480491008244,0.004338354422116843,0.012559449138751313,0.006411133887375877,0.021475444796755234,0.0418195594146653,0.04363306464378854,0.01706195017922783,0.027384233382833217,0.0004087262452898471,0.000900659665641172
46.89914521383443,16.857338596366354,0.015051900259885655,0.042371480491008244,0.004338354422116843,0.012559449138751313,0.006411133887375877,0.021475444796755234,0.0418195594146653,0.04363306464378854,0.01706195017922783,0.027384233382833217,0.0004087262452898471,0.000900659665641172
46.89911846309494,16.857329681553132,0.015051900259885655,0.042371480491008244,0.004338354422116843,0.012559449138751313,0.006411133887375877,0.021475444796755234,0.0418195594146653,0.04363306464378854,0.01706195017922783,0.027384233382833217,0.0004087262452898471,0.000900659665641172
46.89909172920188,16.857320678313787,0.015051900259885655,0.042371480491008244,0.004338354422116843,0.012559449138751313,0.006411133887375877,0.021475444796755234,0.0418195594146653,0.04363306464378854,0.01706195017922783,0.027384233382833217,0.0004087262452898471,0.000900659665641172
46.899063466815704,16.857311087383106,0.015051900259885655,0.042371480491008244,0.004338354422116843,0.012559449138751313,0.006411133887375877,0.021475444796755234,0.0418195594146653,0.04363306464378854,0.01706195017922783,0.027384233382833217,0.0004087262452898471,0.000900659665641172
46.8990359235198,16.85730166837136,0.015051900259885655,0.042371480491008244,0.004338354422116843,0.012559449138751313,0.006411133887375877,0.021475444796755234,0.0418195594146653,0.04363306464378854,0.01706195017922783,0.027384233382833217,0.0004087262452898471,0.000900659665641172
46.89901090468486,16.857293050392393,0.07681909341040599,0.04350614823430103,0.10218672931918787,0.0503931551671263,0.04794717180615246,0.10790172927519008,0.08106973529347523,0.16900484007921338,0.0696448432804866,0.1458417943967495,0.0016334383956172328,0.0007645533065885261
46.89898576436836,16.85728433031958,0.07681909341040599,0.04350614823430103,0.10218672931918787,0.0503931551671263,0.04794717180615246,0.10790172927519008,0.08106973529347523,0.16900484007921338,0.0696448432804866,0.1458417943967495,0.0016334383956172328,0.0007645533065885261
46.89895926566005,16.857275073127987,0.07681909341040599,0.04350614823430103,0.10218672931918787,0.0503931551671263,0.04794717180615246,0.10790172927519008,0.08106973529347523,0.16900484007921338,0.0696448432804866,0.1458417943967495,0.0016334383956172328,0.0007645533065885261
46.898931912179066,16.8572655700705,0.07681909341040599,0.04350614823430103,0.10218672931918787,0.0503931551671263,0.04794717180615246,0.10790172927519008,0.08106973529347523,0.16900484007921338,0.0696448432804866,0.1458417943967495,0.0016334383956172328,0.0007645533065885261
46.89890466555607,16.857256486886254,0.07681909341040599,0.04350614823430103,0.10218672931918787,0.0503931551671263,0.04794717180615246,0.10790172927519008,0.08106973529347523,0.16900484007921338,0.0696448432804866,0.1458417943967495,0.0016334383956172328,0.0007645533065885261
46.898877666046396,16.857247873861446,0.02341650247370172,0.04650778744270631,0.05782498658888147,0.023581835570157115,0.04376322605912714,0.04287545026174522,0.02247370723820384,0.04327711116097308,0.1306769227319058,0.07778822680084346,0.0009895891029196528,0.0007645533065885261
46.89885172357253,16.857239948083297,0.02341650247370172,0.04650778744270631,0.05782498658888147,0.023581835570157115,0.04376322605912714,0.04287545026174522,0.02247370723820384,0.04327711116097308,0.1306769227319058,0.07778822680084346,0.0009895891029196528,0.0007645533065885261
46.89882496264868,16.857232119172533,0.02341650247370172,0.04650778744270631,0.05782498658888147,0.023581835570157115,0.04376322605912714,0.04287545026174522,0.02247370723820384,0.04327711116097308,0.1306769227319058,0.07778822680084346,0.0009895891029196528,0.0007645533065885261
46.89879822695898,16.857224637192942,0.02341650247370172,0.04650778744270631,0.05782498658888147,0.023581835570157115,0.04376322605912714,0.04287545026174522,0.02247370723820384,0.04327711116097308,0.1306769227319058,0.07778822680084346,0.0009895891029196528,0.0007645533065885261
46.898772523585684,16.857217752503562,0.02341650247370172,0.04650778744270631,0.05782498658888147,0.023581835570157115,0.04376322605912714,0.04287545026174522,0.02247370723820384,0.04327711116097308,0.1306769227319058,0.07778822680084346,0.0009895891029196528,0.0007645533065885261
46.89874563257076,16.857210641025663,0.015664491056968925,0.05606087217992274,0.005693987454451285,0.03092081874330864,0.012343748741334882,0.04060015957812543,0.07406263897848753,0.1214414451853703,0.03586628575166585,0.09309526317164236,0.00045048256165569113,0.0014906973030842903
46.89871904623868,16.85720336173084,0.015664491056968925,0.05606087217992274,0.005693987454451285,0.03092081874330864,0.012343748741334882,0.04060015957812543,0.07406263897848753,0.1214414451853703,0.03586628575166585,0.09309526317164236,0.00045048256165569113,0.0014906973030842903
46.89869285526452,16.8571959233061,0.015664491056968925,0.05606087217992274,0.005693987454451285,0.03092081874330864,0.012343748741334882,0.04060015957812543,0.07406263897848753,0.1214414451853703,0.03586628575166585,0.09309526317164236,0.00045048256165569113,0.0014906973030842903
46.89866538671846,16.857187826330236,0.015664491056968925,0.05606087217992274,0.005693987454451285,0.03092081874330864,0.012343748741334882,0.04060015957812543,0.07406263897848753,0.1214414451853703,0.03586628575166585,0.09309526317164236,0.00045048256165569113,0.0014906973030842903
46.89863861496126,16.857179632304888,0.015664491056968925,0.05606087217992274,0.005693987454451285,0.03092081874330864,0.012343748741334882,0.04060015957812543,0.07406263897848753,0.1214414451853703,0.03586628575166585,0.09309526317164236,0.00045048256165569113,0.0014906973030842903
46.898611925650236,16.857171154657227,0.028404774250521885,0.05059125897518607,0.009372812519131845,0.02860243195855698,0.01421695783964685,0.0347008936967431,0.043192032283512434,0.03646753713039007,0.014344895816183744,0.02463831984722991,0.0006342933242962681,0.0006812237309257092
46.8985856012637,16.857162501561323,0.028404774250521885,0.05059125897518607,0.009372812519131845,0.02860243195855698,0.01421695783964685,0.0347008936967431,0.043192032283512434,0.03646753713039007,0.014344895816183744,0.02463831984722991,0.0006342933242962681,0.0006812237309257092
46.8985588148836,16.857153781592007,0.028404774250521885,0.05059125897518607,0.009372812519131845,0.02860243195855698,0.01421695783964685,0.0347008936967431,0.043192032283512434,0.03646753713039007,0.014344895816183744,0.02463831984722991,0.0006342933242962681,0.0006812237309257092
46.898532711283245,16.8571455662204,0.028404774250521885,0.05059125897518607,0.009372812519131845,0.02860243195855698,0.01421695783964685,0.0347008936967431,0.043192032283512434,0.03646753713039007,0.014344895816183744,0.02463831984722991,0.0006342933242962681,0.0006812237309257092
46.89850565777469,16.857137338998136,0.028404774250521885,0.05059125897518607,0.009372812519131845,0.02860243195855698,0.01421695783964685,0.0347008936967431,0.043192032283512434,0.03646753713039007,0.014344895816183744,0.02463831984722991,0.0006342933242962681,0.0006812237309257092
46.89847779685177,16.85712916447905,0.028404774250521885,0.05059125897518607,0.009372812519131845,0.02860243195855698,0.01421695783964685,0.0347008936967431,0.043192032283512434,0.03646753713039007,0.014344895816183744,0.02463831984722991,0.0006342933242962681,0.0006812237309257092
46.89845090649195,16.857121555028183,0.028404774250521885,0.05059125897518607,0.009372812519131845,0.02860243195855698,0.01421695783964685,0.0347008936967431,0.043192032283512434,0.03646753713039007,0.014344895816183744,0.02463831984722991,0.0006342933242962681,0.0006812237309257092
46.898423473136525,16.85711406910642,0.028404774250521885,0.05059125897518607,0.009372812519131845,0.02860243195855698,0.01421695783964685,0.0347008936967431,0.043192032283512434,0.03646753713039007,0.014344895816183744,0.02463831984722991,0.0006342933242962681,0.0006812237309257092
46.89839598923853,16.857106797842896,0.028404774250521885,0.05059125897518607,0.009372812519131845,0.02860243195855698,0.01421695783964685,0.0347008936967431,0.043192032283512434,0.03646753713039007,0.014344895816183744,0.02463831984722991,0.0006342933242962681,0.0006812237309257092
46.89836965537392,16.857099843092822,0.028404774250521885,0.05059125897518607,0.009372812519131845,0.02860243195855698,0.01421695783964685,0.0347008936967431,0.043192032283512434,0.03646753713039007,0.014344895816183744,0.02463831984722991,0.0006342933242962681,0.0006812237309257092
46.89834379683243,16.857092998693624,0.028404774250521885,0.05059125897518607,0.009372812519131845,0.02860243195855698,0.01421695783964685,0.0347008936967431,0.043192032283512434,0.03646753713039007,0.014344895816183744,0.02463831984722991,0.0006342933242962681,0.0006812237309257092
46.89831667475103,16.8570858039169,0.028404774250521885,0.05059125897518607,0.009372812519131845,0.02860243195855698,0.01421695783964685,0.0347008936967431,0.043192032283512434,0.03646753713039007,0.014344895816183744,0.02463831984722991,0.0006342933242962681,0.0006812237309257092
46.89829160202782,16.857079138471157,0.028404774250521885,0.05059125897518607,0.009372812519131845,0.02860243195855698,0.01421695783964685,0.0347008936967431,0.043192032283512434,0.03646753713039007,0.014344895816183744,0.02463831984722991,0.0006342933242962681,0.0006812237309257092
46.89826544597488,16.857072170575854,0.028404774250521885,0.05059125897518607,0.009372812519131845,0.02860243195855698,0.01421695783964685,0.0347008936967431,0.043192032283512434,0.03646753713039007,0.014344895816183744,0.02463831984722991,0.0006342933242962681,0.0006812237309257092
46.89823904221984,16.857065121921053,0.028404774250521885,0.05059125897518607,0.009372812519131845,0.02860243195855698,0.01421695783964685,0.0347008936967431,0.043192032283512434,0.03646753713039007,0.014344895816183744,0.02463831984722991,0.0006342933242962681,0.0006812237309257092
46.898212072986475,16.85705791751842,0.028404774250521885,0.05059125897518607,0.009372812519131845,0.02860243195855698,0.01421695783964685,0.0347008936967431,0.043192032283512434,0.03646753713039007,0.014344895816183744,0.02463831984722991,0.0006342933242962681,0.0006812237309257092
46.89818463940279,16.8570506044052,0.028404774250521885,0.05059125897518607,0.009372812519131845,0.02860243195855698,0.01421695783964685,0.0347008936967431,0.043192032283512434,0.03646753713039007,0.014344895816183744,0.02463831984722991,0.0006342933242962681,0.0006812237309257092
46.898157441527225,16.857043370822236,0.028404774250521885,0.05059125897518607,0.009372812519131845,0.02860243195855698,0.01421695783964685,0.0347008936967431,0.043192032283512434,0.03646753713039007,0.014344895816183744,0.02463831984722991,0.0006342933242962681,0.0006812237309257092
46.89813085692888,16.857036316437085,0.028404774250521885,0.05059125897518607,0.009372812519131845,0.02860243195855698,0.01421695783964685,0.0347008936967431,0.043192032283512434,0.03646753713039007,0.014344895816183744,0.02463831984722991,0.0006342933242962681,0.0006812237309257092
46.89810458883101,16.857029361692604,0.028404774250521885,0.05059125897518607,0.009372812519131845,0.02860243195855698,0.01421695783964685,0.0347008936967431,0.043192032283512434,0.03646753713039007,0.014344895816183744,0.02463831984722991,0.0006342933242962681,0.0006812237309257092
46.89807738301399,16.857022175102667,0.028404774250521885,0.05059125897518607,0.009372812519131845,0.02860243195855698,0.01421695783964685,0.0347008936967431,0.043192032283512434,0.03646753713039007,0.014344895816183744,0.02463831984722991,0.0006342933242962681,0.0006812237309257092
46.89804990398453,16.857014932208138,0.028404774250521885,0.05059125897518607,0.009372812519131845,0.02860243195855698,0.01421695783964685,0.0347008936967431,0.043192032283512434,0.03646753713039007,0.014344895816183744,0.02463831984722991,0.0006342933242962681,0.0006812237309257092
46.89802344013906,16.85700784884133,0.028404774250521885,0.05059125897518607,0.009372812519131845,0.02860243195855698,0.01421695783964685,0.0347008936967431,0.043192032283512434,0.03646753713039007,0.014344895816183744,0.02463831984722991,0.0006342933242962681,0.0006812237309257092
46.897998198395015,16.85700090581293,0.028404774250521885,0.05059125897518607,0.009372812519131845,0.02860243195855698,0.01421695783964685,0.0347008936967431,0.043192032283512434,0.03646753713039007,0.014344895816183744,0.02463831984722991,0.0006342933242962681,0.0006812237309257092
46.89797195593718,16.85699349157987,0.028404774250521885,0.05059125897518607,0.009372812519131845,0.02860243195855698,0.01421695783964685,0.0347008936967431,0.043192032283512434,0.03646753713039007,0.014344895816183744,0.02463831984722991,0.0006342933242962681,0.0006812237309257092
46.897945823574844,16.85698590804925,0.028404774250521885,0.05059125897518607,0.009372812519131845,0.02860243195855698,0.01421695783964685,0.0347008936967431,0.043192032283512434,0.03646753713039007,0.014344895816183744,0.02463831984722991,0.0006342933242962681,0.0006812237309257092
46.89791848774929,16.856977759140932,0.028404774250521885,0.05059125897518607,0.009372812519131845,0.02860243195855698,0.01421695783964685,0.0347008936967431,0.043192032283512434,0.03646753713039007,0.014344895816183744,0.02463831984722991,0.0006342933242962681,0.0006812237309257092
46.897892101724395,16.856969681624477,0.028404774250521885,0.05059125897518607,0.009372812519131845,0.02860243195855698,0.01421695783964685,0.0347008936967431,0.043192032283512434,0.03646753713039007,0.014344895816183744,0.02463831984722991,0.0006342933242962681,0.0006812237309257092
46.89786492684892,16.856961144720657,0.028404774250521885,0.05059125897518607,0.009372812519131845,0.02860243195855698,0.01421695783964685,0.0347008936967431,0.043192032283512434,0.03646753713039007,0.014344895816183744,0.02463831984722991,0.0006342933242962681,0.0006812237309257092
46.89783768777515,16.85695251166114,0.028404774250521885,0.05059125897518607,0.009372812519131845,0.02860243195855698,0.01421695783964685,0.0347008936967431,0.043192032283512434,0.03646753713039007,0.014344895816183744,0.02463831984722991,0.0006342933242962681,0.0006812237309257092
46.8978123213319,16.856944576806523,0.027876453435335295,0.16012236275306146,0.005693657908635195,0.03443564400491134,0.01681637435777047,0.07351715079715943,0.028205194361279082,0.05722891113501185,0.027769107563938213,0.051784395659410475,0.0006565099384106489,0.0017887038026183635
46.897785922689835,16.856936429353947,0.027876453435335295,0.16012236275306146,0.005693657908635195,0.03443564400491134,0.01681637435777047,0.07351715079715943,0.028205194361279082,0.05722891113501185,0.027769107563938213,0.051784395659410475,0.0006565099384106489,0.0017887038026183635
46.897759887908414,16.856928502106264,0.027876453435335295,0.16012236275306146,0.005693657908635195,0.03443564400491134,0.01681637435777047,0.07351715079715943,0.028205194361279082,0.05722891113501185,0.027769107563938213,0.051784395659410475,0.0006565099384106489,0.0017887038026183635
46.89773450387019,16.85692087418577,0.027876453435335295,0.16012236275306146,0.005693657908635195,0.03443564400491134,0.01681637435777047,0.07351715079715943,0.028205194361279082,0.05722891113501185,0.027769107563938213,0.051784395659410475,0.0006565099384106489,0.0017887038026183635
46.897708393387994,16.856913130177446,0.027876453435335295,0.16012236275306146,0.005693657908635195,0.03443564400491134,0.01681637435777047,0.07351715079715943,0.028205194361279082,0.05722891113501185,0.027769107563938213,0.051784395659410475,0.0006565099384106489,0.0017887038026183635
46.897681586035326,16.856905285317676,0.018876424570455786,0.14466440694663998,0.01713453345505007,0.06662828974998276,0.05763798572716893,0.1139386206647313,0.06139423060247566,0.10501898378459561,0.03854106534256951,0.12566309064740916,0.000788042081467867,0.001922452146894314
46.89765477822828,16.856897532802062,0.018876424570455786,0.14466440694663998,0.01713453345505007,0.06662828974998276,0.05763798572716893,0.1139386206647313,0.06139423060247566,0.10501898378459561,0.03854106534256951,0.12566309064740916,0.000788042081467867,0.001922452146894314
46.8976289081733,16.856890075045722,0.018876424570455786,0.14466440694663998,0.01713453345505007,0.06662828974998276,0.05763798572716893,0.1139386206647313,0.06139423060247566,0.10501898378459561,0.03854106534256951,0.12566309064740916,0.000788042081467867,0.001922452146894314
46.89760212526761,16.85688237342682,0.018876424570455786,0.14466440694663998,0.01713453345505007,0.06662828974998276,0.05763798572716893,0.1139386206647313,0.06139423060247566,0.10501898378459561,0.03854106534256951,0.12566309064740916,0.000788042081467867,0.001922452146894314
46.89757585089028,16.85687483730344,0.018876424570455786,0.14466440694663998,0.01713453345505007,0.06662828974998276,0.05763798572716893,0.1139386206647313,0.06139423060247566,0.10501898378459561,0.03854106534256951,0.12566309064740916,0.000788042081467867,0.001922452146894314
46.89754950806284,16.85686730089004,0.015672532831127402,0.06339031998355685,0.006673742689782123,0.037898457205287596,0.016583499174790385,0.050681535338365336,0.0571075301647314,0.11896797150556071,0.054330141304380464,0.10136982485615542,0.03007523822837134,0.0213508882101065
46.89752354058592,16.85685989102545,0.015672532831127402,0.06339031998355685,0.006673742689782123,0.037898457205287596,0.016583499174790385,0.050681535338365336,0.0571075301647314,0.11896797150556071,0.054330141304380464,0.10136982485615542,0.03007523822837134,0.0213508882101065
46.897497702101745,16.856852537025077,0.015672532831127402,0.06339031998355685,0.006673742689782123,0.037898457205287596,0.016583499174790385,0.050681535338365336,0.0571075301647314,0.11896797150556071,0.054330141304380464,0.10136982485615542,0.03007523822837134,0.0213508882101065
46.897472286380875,16.856845268155023,0.015672532831127402,0.06339031998355685,0.006673742689782123,0.037898457205287596,0.016583499174790385,0.050681535338365336,0.0571075301647314,0.11896797150556071,0.054330141304380464,0.10136982485615542,0.03007523822837134,0.0213508882101065
46.89744597405841,16.856837622147875,0.015672532831127402,0.06339031998355685,0.006673742689782123,0.037898457205287596,0.016583499174790385,0.050681535338365336,0.0571075301647314,0.11896797150556071,0.054330141304380464,0.10136982485615542,0.03007523822837134,0.0213508882101065
46.89741951118379,16.856829806206136,0.006900921773016248,0.03857665727095875,0.008429989162066765,0.021402834102021012,0.0060061775982051735,0.019900237501556107,0.02259148204723896,0.048361653676243274,0.013696790971375581,0.027007895041873096,0.0006754545735500134,0.0012792014195053567
46.89739456691355,16.85682232310357,0.006900921773016248,0.03857665727095875,0.008429989162066765,0.021402834102021012,0.0060061775982051735,0.019900237501556107,0.02259148204723896,0.048361653676243274,0.013696790971375581,0.027007895041873096,0.0006754545735500134,0.0012792014195053567
46.897367146497444,16.85681396789688,0.006900921773016248,0.03857665727095875,0.008429989162066765,0.021402834102021012,0.0060061775982051735,0.019900237501556107,0.02259148204723896,0.048361653676243274,0.013696790971375581,0.027007895041873096,0.0006754545735500134,0.0012792014195053567
46.89734151935294,16.856806036897595,0.006900921773016248,0.03857665727095875,0.008429989162066765,0.021402834102021012,0.0060061775982051735,0.019900237501556107,0.02259148204723896,0.048361653676243274,0.013696790971375581,0.027007895041873096,0.0006754545735500134,0.0012792014195053567
46.89731541289062,16.85679783635657,0.006900921773016248,0.03857665727095875,0.008429989162066765,0.021402834102021012,0.0060061775982051735,0.019900237501556107,0.02259148204723896,0.048361653676243274,0.013696790971375581,0.027007895041873096,0.0006754545735500134,0.0012792014195053567
46.89728970673294,16.85678963731369,0.028380546609259583,0.07510009961771691,0.01940324024080381,0.036646195290690256,0.02271406871813945,0.058518149428874025,0.023629439045339137,0.04820687373500727,0.16819142431326467,0.17916409665467253,0.0013477844563354045,0.0024237542532206608
46.897262433340785,16.856780870053885,0.028380546609259583,0.07510009961771691,0.01940324024080381,0.036646195290690256,0.02271406871813945,0.058518149428874025,0.023629439045339137,0.04820687373500727,0.16819142431326467,0.17916409665467253,0.0013477844563354045,0.0024237542532206608
46.897235780511664,16.856772257482028,0.028380546609259583,0.07510009961771691,0.01940324024080381,0.036646195290690256,0.02271406871813945,0.058518149428874025,0.023629439045339137,0.04820687373500727,0.16819142431326467,0.17916409665467253,0.0013477844563354045,0.0024237542532206608
46.89720880137327,16.85676349423713,0.028380546609259583,0.07510009961771691,0.01940324024080381,0.036646195290690256,0.02271406871813945,0.058518149428874025,0.023629439045339137,0.04820687373500727,0.16819142431326467,0.17916409665467253,0.0013477844563354045,0.0024237542532206608
46.89718085859149,16.85675436989258,0.028380546609259583,0.07510009961771691,0.01940324024080381,0.036646195290690256,0.02271406871813945,0.058518149428874025,0.023629439045339137,0.04820687373500727,0.16819142431326467,0.17916409665467253,0.0013477844563354045,0.0024237542532206608
46.897154526984245,16.85674572674436,0.014855085425660945,0.0587640717541311,0.0056955264465580035,0.031155782449048132,0.03807788486649366,0.1125194880938928,0.10254930142564664,0.17139905296267227,0.03925840617316875,0.11612728445518627,0.00018194339913957,0.0006801679129965192
46.89712806224955,16.85673699587304,0.014855085425660945,0.0587640717541311,0.0056955264465580035,0.031155782449048132,0.03807788486649366,0.1125194880938928,0.10254930142564664,0.17139905296267227,0.03925840617316875,0.11612728445518627,0.00018194339913957,0.0006801679129965192
46.897101890320485,16.856728325714425,0.014855085425660945,0.0587640717541311,0.0056955264465580035,0.031155782449048132,0.03807788486649366,0.1125194880938928,0.10254930142564664,0.17139905296267227,0.03925840617316875,0.11612728445518627,0.00018194339913957,0.0006801679129965192
46.897075662042575,16.85671963864045,0.014855085425660945,0.0587640717541311,0.0056955264465580035,0.031155782449048132,0.03807788486649366,0.1125194880938928,0.10254930142564664,0.17139905296267227,0.03925840617316875,0.11612728445518627,0.00018194339913957,0.0006801679129965192
46.89704841917212,16.85671062424048,0.014855085425660945,0.0587640717541311,0.0056955264465580035,0.031155782449048132,0.03807788486649366,0.1125194880938928,0.10254930142564664,0.17139905296267227,0.03925840617316875,0.11612728445518627,0.00018194339913957,0.0006801679129965192
46.89702284370811,16.856702169627404,0.012637654603331201,0.07578177999309103,0.012131094719791609,0.051770846982604236,0.020852224310498532,0.050376783663060254,0.019209849420052584,0.03004046463685013,0.06351772716926642,0.12181139580067554,0.0009485454974387931,0.0007682987463946742
46.896997421739485,16.85669377347109,0.012637654603331201,0.07578177999309103,0.012131094719791609,0.051770846982604236,0.020852224310498532,0.050376783663060254,0.019209849420052584,0.03004046463685013,0.06351772716926642,0.12181139580067554,0.0009485454974387931,0.0007682987463946742
46.896971411356276,16.8566851909158,0.012637654603331201,0.07578177999309103,0.012131094719791609,0.051770846982604236,0.020852224310498532,0.050376783663060254,0.019209849420052584,0.03004046463685013,0.06351772716926642,0.12181139580067554,0.0009485454974387931,0.0007682987463946742
46.89694507109905,16.856676507671004,0.012637654603331201,0.07578177999309103,0.012131094719791609,0.051770846982604236,0.020852224310498532,0.050376783663060254,0.019209849420052584,0.03004046463685013,0.06351772716926642,0.12181139580067554,0.0009485454974387931,0.0007682987463946742
46.8969180644385,16.856667604153735,0.012637654603331201,0.07578177999309103,0.012131094719791609,0.051770846982604236,0.020852224310498532,0.050376783663060254,0.019209849420052584,0.03004046463685013,0.06351772716926642,0.12181139580067554,0.0009485454974387931,0.0007682987463946742
46.89689198356827,16.856658951626674,0.01981437288954187,0.048153754671741704,0.011779790223274854,0.032494604067613016,0.030363069391354566,0.03890414413667041,0.026779800676484555,0.036868899532516416,0.016890051633351166,0.03332372742908155,0.0007430505076292769,0.0005463302397255571
46.89686541878685,16.856650074859374,0.01981437288954187,0.048153754671741704,0.011779790223274854,0.032494604067613016,0.030363069391354566,0.03890414413667041,0.026779800676484555,0.036868899532516416,0.016890051633351166,0.03332372742908155,0.0007430505076292769,0.0005463302397255571
46.89683933758576,16.85664129799888,0.01981437288954187,0.048153754671741704,0.011779790223274854,0.032494604067613016,0.030363069391354566,0.03890414413667041,0.026779800676484555,0.036868899532516416,0.016890051633351166,0.03332372742908155,0.0007430505076292769,0.0005463302397255571
46.89681314345125,16.856632422482445,0.01981437288954187,0.048153754671741704,0.011779790223274854,0.032494604067613016,0.030363069391354566,0.03890414413667041,0.026779800676484555,0.036868899532516416,0.016890051633351166,0.03332372742908155,0.0007430505076292769,0.0005463302397255571
46.89678633658996,16.85662327730735,0.01981437288954187,0.048153754671741704,0.011779790223274854,0.032494604067613016,0.030363069391354566,0.03890414413667041,0.026779800676484555,0.036868899532516416,0.016890051633351166,0.03332372742908155,0.0007430505076292769,0.0005463302397255571
46.89675988357098,16.85661419215928,0.01981437288954187,0.048153754671741704,0.011779790223274854,0.032494604067613016,0.030363069391354566,0.03890414413667041,0.026779800676484555,0.036868899532516416,0.016890051633351166,0.03332372742908155,0.0007430505076292769,0.0005463302397255571
46.89673369701268,16.85660513997585,0.01981437288954187,0.048153754671741704,0.011779790223274854,0.032494604067613016,0.030363069391354566,0.03890414413667041,0.026779800676484555,0.036868899532516416,0.016890051633351166,0.03332372742908155,0.0007430505076292769,0.0005463302397255571
46.896707363206026,16.856596038427902,0.01981437288954187,0.048153754671741704,0.011779790223274854,0.032494604067613016,0.030363069391354566,0.03890414413667041,0.026779800676484555,0.036868899532516416,0.016890051633351166,0.03332372742908155,0.0007430505076292769,0.0005463302397255571
46.89668094035459,16.856586990046136,0.01981437288954187,0.048153754671741704,0.011779790223274854,0.032494604067613016,0.030363069391354566,0.03890414413667041,0.026779800676484555,0.036868899532516416,0.016890051633351166,0.03332372742908155,0.0007430505076292769,0.0005463302397255571
46.896653923075,16.85657782482908,0.01981437288954187,0.048153754671741704,0.011779790223274854,0.032494604067613016,0.030363069391354566,0.03890414413667041,0.026779800676484555,0.036868899532516416,0.016890051633351166,0.03332372742908155,0.0007430505076292769,0.0005463302397255571
46.896627749515844,16.85656902871775,0.01981437288954187,0.048153754671741704,0.011779790223274854,0.032494604067613016,0.030363069391354566,0.03890414413667041,0.026779800676484555,0.036868899532516416,0.016890051633351166,0.03332372742908155,0.0007430505076292769,0.0005463302397255571
46.89660168630061,16.85656035003971,0.01981437288954187,0.048153754671741704,0.011779790223274854,0.032494604067613016,0.030363069391354566,0.03890414413667041,0.026779800676484555,0.036868899532516416,0.016890051633351166,0.03332372742908155,0.0007430505076292769,0.0005463302397255571
46.89657620337613,16.856551941454082,0.01981437288954187,0.048153754671741704,0.011779790223274854,0.032494604067613016,0.030363069391354566,0.03890414413667041,0.026779800676484555,0.036868899532516416,0.016890051633351166,0.03332372742908155,0.0007430505076292769,0.0005463302397255571
46.89655016068463,16.856543426020963,0.01981437288954187,0.048153754671741704,0.011779790223274854,0.032494604067613016,0.030363069391354566,0.03890414413667041,0.026779800676484555,0.036868899532516416,0.016890051633351166,0.03332372742908155,0.0007430505076292769,0.0005463302397255571
46.896523692877174,16.856534852190983,0.01981437288954187,0.048153754671741704,0.011779790223274854,0.032494604067613016,0.030363069391354566,0.03890414413667041,0.026779800676484555,0.036868899532516416,0.016890051633351166,0.03332372742908155,0.0007430505076292769,0.0005463302397255571
46.89649736302528,16.856526468147763,0.012062825053841457,0.0627785975273249,0.008482349053918347,0.0500081466986114,0.011923856728666115,0.057997260905533025,0.0754139804993763,0.11154042982718375,0.03390628910863151,0.0635157388091698,0.0003085395863305651,0.0011750698573849672
46.89647039610819,16.856518071185384,0.012062825053841457,0.0627785975273249,0.008482349053918347,0.0500081466986114,0.011923856728666115,0.057997260905533025,0.0754139804993763,0.11154042982718375,0.03390628910863151,0.0635157388091698,0.0003085395863305651,0.0011750698573849672
46.896444247531676,16.856510112266225,0.012062825053841457,0.0627785975273249,0.008482349053918347,0.0500081466986114,0.011923856728666115,0.057997260905533025,0.0754139804993763,0.11154042982718375,0.03390628910863151,0.0635157388091698,0.0003085395863305651,0.0011750698573849672
46.896417860948546,16.8565022633269,0.012062825053841457,0.0627785975273249,0.008482349053918347,0.0500081466986114,0.011923856728666115,0.057997260905533025,0.0754139804993763,0.11154042982718375,0.03390628910863151,0.0635157388091698,0.0003085395863305651,0.0011750698573849672
46.89639108932332,16.85649448675214,0.012062825053841457,0.0627785975273249,0.008482349053918347,0.0500081466986114,0.011923856728666115,0.057997260905533025,0.0754139804993763,0.11154042982718375,0.03390628910863151,0.0635157388091698,0.0003085395863305651,0.0011750698573849672
46.89636464892989,16.85648699078237,0.016280115263702516,0.05299953239551171,0.010407224450364762,0.02262121065613651,0.010035416294283532,0.02917367313027124,0.009088696059927156,0.021567668467176913,0.018039779624038604,0.03756070745969946,0.00014554042268003495,0.0006048287731026685
46.89633838645644,16.856479726231868,0.016280115263702516,0.05299953239551171,0.010407224450364762,0.02262121065613651,0.010035416294283532,0.02917367313027124,0.009088696059927156,0.021567668467176913,0.018039779624038604,0.03756070745969946,0.00014554042268003495,0.0006048287731026685
46.89631209876805,16.856472623824118,0.016280115263702516,0.05299953239551171,0.010407224450364762,0.02262121065613651,0.010035416294283532,0.02917367313027124,0.009088696059927156,0.021567668467176913,0.018039779624038604,0.03756070745969946,0.00014554042268003495,0.0006048287731026685
46.89628555034626,16.856465251103284,0.016280115263702516,0.05299953239551171,0.010407224450364762,0.02262121065613651,0.010035416294283532,0.02917367313027124,0.009088696059927156,0.021567668467176913,0.018039779624038604,0.03756070745969946,0.00014554042268003495,0.0006048287731026685
46.896258960919724,16.85645748334118,0.016280115263702516,0.05299953239551171,0.010407224450364762,0.02262121065613651,0.010035416294283532,0.02917367313027124,0.009088696059927156,0.021567668467176913,0.018039779624038604,0.03756070745969946,0.00014554042268003495,0.0006048287731026685
46.896233385388086,16.856449645999344,0.026331448070184192,0.058164167271530724,0.010706919346038858,0.03711056800156424,0.011570009366912784,0.04106968600982933,0.069909768806881,0.11050289589402464,0.026551726055880093,0.037444036779681014,0.0006730177116219802,0.0008925129514877484
46.89620737551089,16.856441304074234,0.026331448070184192,0.058164167271530724,0.010706919346038858,0.03711056800156424,0.011570009366912784,0.04106968600982933,0.069909768806881,0.11050289589402464,0.026551726055880093,0.037444036779681014,0.0006730177116219802,0.0008925129514877484
46.89618131183641,16.856432565307827,0.026331448070184192,0.058164167271530724,0.010706919346038858,0.03711056800156424,0.011570009366912784,0.04106968600982933,0.069909768806881,0.11050289589402464,0.026551726055880093,0.037444036779681014,0.0006730177116219802,0.0008925129514877484
46.89615550247176,16.856423533780063,0.026331448070184192,0.058164167271530724,0.010706919346038858,0.03711056800156424,0.011570009366912784,0.04106968600982933,0.069909768806881,0.11050289589402464,0.026551726055880093,0.037444036779681014,0.0006730177116219802,0.0008925129514877484
46.89612808975835,16.85641352487908,0.026331448070184192,0.058164167271530724,0.010706919346038858,0.03711056800156424,0.011570009366912784,0.04106968600982933,0.069909768806881,0.11050289589402464,0.026551726055880093,0.037444036779681014,0.0006730177116219802,0.0008925129514877484
46.89610197083883,16.85640361951434,0.026331448070184192,0.058164167271530724,0.010706919346038858,0.03711056800156424,0.011570009366912784,0.04106968600982933,0.069909768806881,0.11050289589402464,0.026551726055880093,0.037444036779681014,0.0006730177116219802,0.0008925129514877484
46.89607596226229,16.856393842875082,0.026331448070184192,0.058164167271530724,0.010706919346038858,0.03711056800156424,0.011570009366912784,0.04106968600982933,0.069909768806881,0.11050289589402464,0.026551726055880093,0.037444036779681014,0.0006730177116219802,0.0008925129514877484
46.89604952152106,16.856384133745333,0.026331448070184192,0.058164167271530724,0.010706919346038858,0.03711056800156424,0.011570009366912784,0.04106968600982933,0.069909768806881,0.11050289589402464,0.026551726055880093,0.037444036779681014,0.0006730177116219802,0.0008925129514877484
46.89602377754043,16.856374902088454,0.026331448070184192,0.058164167271530724,0.010706919346038858,0.03711056800156424,0.011570009366912784,0.04106968600982933,0.069909768806881,0.11050289589402464,0.026551726055880093,0.037444036779681014,0.0006730177116219802,0.0008925129514877484
46.89599762656507,16.85636574715427,0.026331448070184192,0.058164167271530724,0.010706919346038858,0.03711056800156424,0.011570009366912784,0.04106968600982933,0.069909768806881,0.11050289589402464,0.026551726055880093,0.037444036779681014,0.0006730177116219802,0.0008925129514877484
46.8959712776305,16.85635674875586,0.026331448070184192,0.058164167271530724,0.010706919346038858,0.03711056800156424,0.011570009366912784,0.04106968600982933,0.069909768806881,0.11050289589402464,0.026551726055880093,0.037444036779681014,0.0006730177116219802,0.0008925129514877484
46.895944871777175,16.856347957090534,0.026331448070184192,0.058164167271530724,0.010706919346038858,0.03711056800156424,0.011570009366912784,0.04106968600982933,0.069909768806881,0.11050289589402464,0.026551726055880093,0.037444036779681014,0.0006730177116219802,0.0008925129514877484
46.89591858796511,16.85633942974725,0.026331448070184192,0.058164167271530724,0.010706919346038858,0.03711056800156424,0.011570009366912784,0.04106968600982933,0.069909768806881,0.11050289589402464,0.026551726055880093,0.037444036779681014,0.0006730177116219802,0.0008925129514877484
46.895892935004966,16.856331293845084,0.026331448070184192,0.058164167271530724,0.010706919346038858,0.03711056800156424,0.011570009366912784,0.04106968600982933,0.069909768806881,0.11050289589402464,0.026551726055880093,0.037444036779681014,0.0006730177116219802,0.0008925129514877484
46.895866632714885,16.856322955303252,0.026331448070184192,0.058164167271530724,0.010706919346038858,0.03711056800156424,0.011570009366912784,0.04106968600982933,0.069909768806881,0.11050289589402464,0.026551726055880093,0.037444036779681014,0.0006730177116219802,0.0008925129514877484
46.895840184808435,16.85631453964966,0.026331448070184192,0.058164167271530724,0.010706919346038858,0.03711056800156424,0.011570009366912784,0.04106968600982933,0.069909768806881,0.11050289589402464,0.026551726055880093,0.037444036779681014,0.0006730177116219802,0.0008925129514877484
46.89581378927045,16.856306109591202,0.026331448070184192,0.058164167271530724,0.010706919346038858,0.03711056800156424,0.011570009366912784,0.04106968600982933,0.069909768806881,0.11050289589402464,0.026551726055880093,0.037444036779681014,0.0006730177116219802,0.0008925129514877484
46.895787759300916,16.856297765769558,0.026331448070184192,0.058164167271530724,0.010706919346038858,0.03711056800156424,0.011570009366912784,0.04106968600982933,0.069909768806881,0.11050289589402464,0.026551726055880093,0.037444036779681014,0.0006730177116219802,0.0008925129514877484
46.895761253503984,16.856289238162706,0.026331448070184192,0.058164167271530724,0.010706919346038858,0.03711056800156424,0.011570009366912784,0.04106968600982933,0.069909768806881,0.11050289589402464,0.026551726055880093,0.037444036779681014,0.0006730177116219802,0.0008925129514877484
46.895734958549156,16.85628074709392,0.026331448070184192,0.058164167271530724,0.010706919346038858,0.03711056800156424,0.011570009366912784,0.04106968600982933,0.069909768806881,0.11050289589402464,0.026551726055880093,0.037444036779681014,0.0006730177116219802,0.0008925129514877484
46.89570903164405,16.85627234423693,0.026331448070184192,0.058164167271530724,0.010706919346038858,0.03711056800156424,0.011570009366912784,0.04106968600982933,0.069909768806881,0.11050289589402464,0.026551726055880093,0.037444036779681014,0.0006730177116219802,0.0008925129514877484
46.89568280815836,16.856263858949575,0.026331448070184192,0.058164167271530724,0.010706919346038858,0.03711056800156424,0.011570009366912784,0.04106968600982933,0.069909768806881,0.11050289589402464,0.026551726055880093,0.037444036779681014,0.0006730177116219802,0.0008925129514877484
46.89565602789744,16.856255351942373,0.026331448070184192,0.058164167271530724,0.010706919346038858,0.03711056800156424,0.011570009366912784,0.04106968600982933,0.069909768806881,0.11050289589402464,0.026551726055880093,0.037444036779681014,0.0006730177116219802,0.0008925129514877484
46.89562946358533,16.856247082308354,0.026331448070184192,0.058164167271530724,0.010706919346038858,0.03711056800156424,0.011570009366912784,0.04106968600982933,0.069909768806881,0.11050289589402464,0.026551726055880093,0.037444036779681014,0.0006730177116219802,0.0008925129514877484
46.89560347179652,16.856239153920388,0.026331448070184192,0.058164167271530724,0.010706919346038858,0.03711056800156424,0.011570009366912784,0.04106968600982933,0.069909768806881,0.11050289589402464,0.026551726055880093,0.037444036779681014,0.0006730177116219802,0.0008925129514877484
46.89557729536033,16.856231332493596,0.050330598865368024,0.05943365722537258,0.012695952589046176,0.023220684878274517,0.02658080380336797,0.03951228034473443,0.032737408480087216,0.034388112379756655,0.029743146432248315,0.02976005290067408,0.0011385385210810949,0.0009343247785692765
46.89555100635561,16.8562236426459,0.050330598865368024,0.05943365722537258,0.012695952589046176,0.023220684878274517,0.02658080380336797,0.03951228034473443,0.032737408480087216,0.034388112379756655,0.029743146432248315,0.02976005290067408,0.0011385385210810949,0.0009343247785692765
46.89552465160589,16.85621610013049,0.050330598865368024,0.05943365722537258,0.012695952589046176,0.023220684878274517,0.02658080380336797,0.03951228034473443,0.032737408480087216,0.034388112379756655,0.029743146432248315,0.02976005290067408,0.0011385385210810949,0.0009343247785692765
46.895497976716285,16.856208636128606,0.050330598865368024,0.05943365722537258,0.012695952589046176,0.023220684878274517,0.02658080380336797,0.03951228034473443,0.032737408480087216,0.034388112379756655,0.029743146432248315,0.02976005290067408,0.0011385385210810949,0.0009343247785692765
46.8954717081858,16.856201277575074,0.050330598865368024,0.05943365722537258,0.012695952589046176,0.023220684878274517,0.02658080380336797,0.03951228034473443,0.032737408480087216,0.034388112379756655,0.029743146432248315,0.02976005290067408,0.0011385385210810949,0.0009343247785692765
46.895445574195286,16.856193728476548,0.050330598865368024,0.05943365722537258,0.012695952589046176,0.023220684878274517,0.02658080380336797,0.03951228034473443,0.032737408480087216,0.034388112379756655,0.029743146432248315,0.02976005290067408,0.0011385385210810949,0.0009343247785692765
46.895419251727425,16.85618589476109,0.050330598865368024,0.05943365722537258,0.012695952589046176,0.023220684878274517,0.02658080380336797,0.03951228034473443,0.032737408480087216,0.034388112379756655,0.029743146432248315,0.02976005290067408,0.0011385385210810949,0.0009343247785692765
46.895393761158175,16.856178089038785,0.050330598865368024,0.05943365722537258,0.012695952589046176,0.023220684878274517,0.02658080380336797,0.03951228034473443,0.032737408480087216,0.034388112379756655,0.029743146432248315,0.02976005290067408,0.0011385385210810949,0.0009343247785692765
46.89536807438964,16.85617000525514,0.050330598865368024,0.05943365722537258,0.012695952589046176,0.023220684878274517,0.02658080380336797,0.03951228034473443,0.032737408480087216,0.034388112379756655,0.029743146432248315,0.02976005290067408,0.0011385385210810949,0.0009343247785692765
46.895342032475355,16.856161586930668,0.050330598865368024,0.05943365722537258,0.012695952589046176,0.023220684878274517,0.02658080380336797,0.03951228034473443,0.032737408480087216,0.034388112379756655,0.029743146432248315,0.02976005290067408,0.0011385385210810949,0.0009343247785692765
46.89531596907584,16.856152937673997,0.050330598865368024,0.05943365722537258,0.012695952589046176,0.023220684878274517,0.02658080380336797,0.03951228034473443,0.032737408480087216,0.034388112379756655,0.029743146432248315,0.02976005290067408,0.0011385385210810949,0.0009343247785692765
46.89528960726333,16.856143963264717,0.050330598865368024,0.05943365722537258,0.012695952589046176,0.023220684878274517,0.02658080380336797,0.03951228034473443,0.032737408480087216,0.034388112379756655,0.029743146432248315,0.02976005290067408,0.0011385385210810949,0.0009343247785692765
46.895263536033404,16.856135043936682,0.050330598865368024,0.05943365722537258,0.012695952589046176,0.023220684878274517,0.02658080380336797,0.03951228034473443,0.032737408480087216,0.034388112379756655,0.029743146432248315,0.02976005290067408,0.0011385385210810949,0.0009343247785692765
46.89523743517848,16.85612619894894,0.050330598865368024,0.05943365722537258,0.012695952589046176,0.023220684878274517,0.02658080380336797,0.03951228034473443,0.032737408480087216,0.034388112379756655,0.029743146432248315,0.02976005290067408,0.0011385385210810949,0.0009343247785692765
46.89521166047087,16.856117547287255,0.050330598865368024,0.05943365722537258,0.012695952589046176,0.023220684878274517,0.02658080380336797,0.03951228034473443,0.032737408480087216,0.034388112379756655,0.029743146432248315,0.02976005290067408,0.0011385385210810949,0.0009343247785692765
46.895184884466346,16.856108646527222,0.050330598865368024,0.05943365722537258,0.012695952589046176,0.023220684878274517,0.02658080380336797,0.03951228034473443,0.032737408480087216,0.034388112379756655,0.029743146432248315,0.02976005290067408,0.0011385385210810949,0.0009343247785692765
46.89515925801542,16.8561002107616,0.050330598865368024,0.05943365722537258,0.012695952589046176,0.023220684878274517,0.02658080380336797,0.03951228034473443,0.032737408480087216,0.034388112379756655,0.029743146432248315,0.02976005290067408,0.0011385385210810949,0.0009343247785692765
46.89513177375175,16.856091253356098,0.050330598865368024,0.05943365722537258,0.012695952589046176,0.023220684878274517,0.02658080380336797,0.03951228034473443,0.032737408480087216,0.034388112379756655,0.029743146432248315,0.02976005290067408,0.0011385385210810949,0.0009343247785692765
46.89510555237646,16.856082794121157,0.050330598865368024,0.05943365722537258,0.012695952589046176,0.023220684878274517,0.02658080380336797,0.03951228034473443,0.032737408480087216,0.034388112379756655,0.029743146432248315,0.02976005290067408,0.0011385385210810949,0.0009343247785692765
46.89507932597801,16.856074410256134,0.050330598865368024,0.05943365722537258,0.012695952589046176,0.023220684878274517,0.02658080380336797,0.03951228034473443,0.032737408480087216,0.034388112379756655,0.029743146432248315,0.02976005290067408,0.0011385385210810949,0.0009343247785692765
46.89505257011665,16.856065809040686,0.03508422638391608,0.0547325028175286,0.00984528467528118,0.030272528702790198,0.010390740760417433,0.04470979920595448,0.03671691389580751,0.10569522593147057,0.025648524742156748,0.02992693587705232,0.0011248291870355428,0.0013236696183530372
46.89502567126898,16.856057068656913,0.03508422638391608,0.0547325028175286,0.00984528467528118,0.030272528702790198,0.010390740760417433,0.04470979920595448,0.03671691389580751,0.10569522593147057,0.025648524742156748,0.02992693587705232,0.0011248291870355428,0.0013236696183530372
46.894998931341235,16.856048288675243,0.03508422638391608,0.0547325028175286,0.00984528467528118,0.030272528702790198,0.010390740760417433,0.04470979920595448,0.03671691389580751,0.10569522593147057,0.025648524742156748,0.02992693587705232,0.0011248291870355428,0.0013236696183530372
46.89497182924864,16.856039298251808,0.03508422638391608,0.0547325028175286,0.00984528467528118,0.030272528702790198,0.010390740760417433,0.04470979920595448,0.03671691389580751,0.10569522593147057,0.025648524742156748,0.02992693587705232,0.0011248291870355428,0.0013236696183530372
46.89494516705882,16.856030365145312,0.03508422638391608,0.0547325028175286,0.00984528467528118,0.030272528702790198,0.010390740760417433,0.04470979920595448,0.03671691389580751,0.10569522593147057,0.025648524742156748,0.02992693587705232,0.0011248291870355428,0.0013236696183530372
46.89491856760058,16.856021366704464,0.03508422638391608,0.0547325028175286,0.00984528467528118,0.030272528702790198,0.010390740760417433,0.04470979920595448,0.03671691389580751,0.10569522593147057,0.025648524742156748,0.02992693587705232,0.0011248291870355428,0.0013236696183530372
46.89489123152328,16.856012030474062,0.03508422638391608,0.0547325028175286,0.00984528467528118,0.030272528702790198,0.010390740760417433,0.04470979920595448,0.03671691389580751,0.10569522593147057,0.025648524742156748,0.02992693587705232,0.0011248291870355428,0.0013236696183530372
46.894864564565054,16.856002797742057,0.03508422638391608,0.0547325028175286,0.00984528467528118,0.030272528702790198,0.010390740760417433,0.04470979920595448,0.03671691389580751,0.10569522593147057,0.025648524742156748,0.02992693587705232,0.0011248291870355428,0.0013236696183530372
46.89483777887139,16.85599317166961,0.03508422638391608,0.0547325028175286,0.00984528467528118,0.030272528702790198,0.010390740760417433,0.04470979920595448,0.03671691389580751,0.10569522593147057,0.025648524742156748,0.02992693587705232,0.0011248291870355428,0.0013236696183530372
46.89481217141368,16.855983607235213,0.03508422638391608,0.0547325028175286,0.00984528467528118,0.030272528702790198,0.010390740760417433,0.04470979920595448,0.03671691389580751,0.10569522593147057,0.025648524742156748,0.02992693587705232,0.0011248291870355428,0.0013236696183530372
46.89478513316252,16.855973127027834,0.014222387544221473,0.029165557355930342,0.014313323888226637,0.024837112951939397,0.02552362954298347,0.03856932442610434,0.03095060432983214,0.02992663299062448,0.010001602583420708,0.02340902628219133,0.0002642088288841791,0.0006603988885796301
46.89475924424828,16.855962727611217,0.014222387544221473,0.029165557355930342,0.014313323888226637,0.024837112951939397,0.02552362954298347,0.03856932442610434,0.03095060432983214,0.02992663299062448,0.010001602583420708,0.02340902628219133,0.0002642088288841791,0.0006603988885796301
46.89473295208557,16.855951803242398,0.014222387544221473,0.029165557355930342,0.014313323888226637,0.024837112951939397,0.02552362954298347,0.03856932442610434,0.03095060432983214,0.02992663299062448,0.010001602583420708,0.02340902628219133,0.0002642088288841791,0.0006603988885796301
46.89470591423858,16.855940190034413,0.014222387544221473,0.029165557355930342,0.014313323888226637,0.024837112951939397,0.02552362954298347,0.03856932442610434,0.03095060432983214,0.02992663299062448,0.010001602583420708,0.02340902628219133,0.0002642088288841791,0.0006603988885796301
46.89467916291613,16.85592832406832,0.014222387544221473,0.029165557355930342,0.014313323888226637,0.024837112951939397,0.02552362954298347,0.03856932442610434,0.03095060432983214,0.02992663299062448,0.010001602583420708,0.02340902628219133,0.0002642088288841791,0.0006603988885796301
46.894653057908045,16.855916417188144,0.014222387544221473,0.029165557355930342,0.014313323888226637,0.024837112951939397,0.02552362954298347,0.03856932442610434,0.03095060432983214,0.02992663299062448,0.010001602583420708,0.02340902628219133,0.0002642088288841791,0.0006603988885796301
46.894626156777235,16.855904242107208,0.014222387544221473,0.029165557355930342,0.014313323888226637,0.024837112951939397,0.02552362954298347,0.03856932442610434,0.03095060432983214,0.02992663299062448,0.010001602583420708,0.02340902628219133,0.0002642088288841791,0.0006603988885796301
46.89460038838513,16.855892795603836,0.014222387544221473,0.029165557355930342,0.014313323888226637,0.024837112951939397,0.02552362954298347,0.03856932442610434,0.03095060432983214,0.02992663299062448,0.010001602583420708,0.02340902628219133,0.0002642088288841791,0.0006603988885796301
46.89457357351106,16.855881107230097,0.014222387544221473,0.029165557355930342,0.014313323888226637,0.024837112951939397,0.02552362954298347,0.03856932442610434,0.03095060432983214,0.02992663299062448,0.010001602583420708,0.02340902628219133,0.0002642088288841791,0.0006603988885796301
46.894546894236825,16.85586970216341,0.014222387544221473,0.029165557355930342,0.014313323888226637,0.024837112951939397,0.02552362954298347,0.03856932442610434,0.03095060432983214,0.02992663299062448,0.010001602583420708,0.02340902628219133,0.0002642088288841791,0.0006603988885796301
46.89452068496689,16.855858714458474,0.03761515592688816,0.050903374588011356,0.015243436846225122,0.03961111110298258,0.03841884876836292,0.06373772085428701,0.09492963535328335,0.10244476896493582,0.03188763436893697,0.048547762008592794,0.00038880775066399734,0.0008247723703054147
46.894494750473626,16.855848051758155,0.03761515592688816,0.050903374588011356,0.015243436846225122,0.03961111110298258,0.03841884876836292,0.06373772085428701,0.09492963535328335,0.10244476896493582,0.03188763436893697,0.048547762008592794,0.00038880775066399734,0.0008247723703054147
46.89446849350173,16.855837467826248,0.03761515592688816,0.050903374588011356,0.015243436846225122,0.03961111110298258,0.03841884876836292,0.06373772085428701,0.09492963535328335,0.10244476896493582,0.03188763436893697,0.048547762008592794,0.00038880775066399734,0.0008247723703054147
46.89444179198228,16.85582692143099,0.03761515592688816,0.050903374588011356,0.015243436846225122,0.03961111110298258,0.03841884876836292,0.06373772085428701,0.09492963535328335,0.10244476896493582,0.03188763436893697,0.048547762008592794,0.00038880775066399734,0.0008247723703054147
46.894415951276656,16.85581683436401,0.03761515592688816,0.050903374588011356,0.015243436846225122,0.03961111110298258,0.03841884876836292,0.06373772085428701,0.09492963535328335,0.10244476896493582,0.03188763436893697,0.048547762008592794,0.00038880775066399734,0.0008247723703054147
46.89439045185108,16.85580690547161,0.03761515592688816,0.050903374588011356,0.015243436846225122,0.03961111110298258,0.03841884876836292,0.06373772085428701,0.09492963535328335,0.10244476896493582,0.03188763436893697,0.048547762008592794,0.00038880775066399734,0.0008247723703054147
46.89436341362503,16.855796404666872,0.03761515592688816,0.050903374588011356,0.015243436846225122,0.03961111110298258,0.03841884876836292,0.06373772085428701,0.09492963535328335,0.10244476896493582,0.03188763436893697,0.048547762008592794,0.00038880775066399734,0.0008247723703054147
46.89433705013918,16.855786193005258,0.03761515592688816,0.050903374588011356,0.015243436846225122,0.03961111110298258,0.03841884876836292,0.06373772085428701,0.09492963535328335,0.10244476896493582,0.03188763436893697,0.048547762008592794,0.00038880775066399734,0.0008247723703054147
46.894310140981226,16.855775797689496,0.03761515592688816,0.050903374588011356,0.015243436846225122,0.03961111110298258,0.03841884876836292,0.06373772085428701,0.09492963535328335,0.10244476896493582,0.03188763436893697,0.048547762008592794,0.00038880775066399734,0.0008247723703054147
46.8942833515063,16.85576547649339,0.03761515592688816,0.050903374588011356,0.015243436846225122,0.03961111110298258,0.03841884876836292,0.06373772085428701,0.09492963535328335,0.10244476896493582,0.03188763436893697,0.048547762008592794,0.00038880775066399734,0.0008247723703054147
46.894256586933544,16.85575519277426,0.03761515592688816,0.050903374588011356,0.015243436846225122,0.03961111110298258,0.03841884876836292,0.06373772085428701,0.09492963535328335,0.10244476896493582,0.03188763436893697,0.048547762008592794,0.00038880775066399734,0.0008247723703054147
46.894230932006295,16.855745361670646,0.03761515592688816,0.050903374588011356,0.015243436846225122,0.03961111110298258,0.03841884876836292,0.06373772085428701,0.09492963535328335,0.10244476896493582,0.03188763436893697,0.048547762008592794,0.00038880775066399734,0.0008247723703054147
46.89420443054871,16.85573524205425,0.03761515592688816,0.050903374588011356,0.015243436846225122,0.03961111110298258,0.03841884876836292,0.06373772085428701,0.09492963535328335,0.10244476896493582,0.03188763436893697,0.048547762008592794,0.00038880775066399734,0.0008247723703054147
46.89417749575234,16.855725017803188,0.03761515592688816,0.050903374588011356,0.015243436846225122,0.03961111110298258,0.03841884876836292,0.06373772085428701,0.09492963535328335,0.10244476896493582,0.03188763436893697,0.048547762008592794,0.00038880775066399734,0.0008247723703054147
46.894150823544265,16.855714955289102,0.03761515592688816,0.050903374588011356,0.015243436846225122,0.03961111110298258,0.03841884876836292,0.06373772085428701,0.09492963535328335,0.10244476896493582,0.03188763436893697,0.048547762008592794,0.00038880775066399734,0.0008247723703054147
46.89412490027626,16.85570523504064,0.013385323546345777,0.04043460404395815,0.009289124921173607,0.023766844579394597,0.01825440611586987,0.016417783260370487,0.006758876393206548,0.016539395660671904,0.010049638764557493,0.02628717798531578,0.0004314504017185332,0.0007872816415082107
46.894098548446784,16.855695414985103,0.013385323546345777,0.04043460404395815,0.009289124921173607,0.023766844579394597,0.01825440611586987,0.016417783260370487,0.006758876393206548,0.016539395660671904,0.010049638764557493,0.02628717798531578,0.0004314504017185332,0.0007872816415082107
46.89407186948993,16.855685536121328,0.013385323546345777,0.04043460404395815,0.009289124921173607,0.023766844579394597,0.01825440611586987,0.016417783260370487,0.006758876393206548,0.016539395660671904,0.010049638764557493,0.02628717798531578,0.0004314504017185332,0.0007872816415082107
46.8940456319229,16.85567588319261,0.013385323546345777,0.04043460404395815,0.009289124921173607,0.023766844579394597,0.01825440611586987,0.016417783260370487,0.006758876393206548,0.016539395660671904,0.010049638764557493,0.02628717798531578,0.0004314504017185332,0.0007872816415082107
46.89401913637201,16.85566619882745,0.013385323546345777,0.04043460404395815,0.009289124921173607,0.023766844579394597,0.01825440611586987,0.016417783260370487,0.006758876393206548,0.016539395660671904,0.010049638764557493,0.02628717798531578,0.0004314504017185332,0.0007872816415082107
46.89399242527712,16.855656497732735,0.02742257222151091,0.061563445996214536,0.013501513651224565,0.0443122579929006,0.039450053513750374,0.06667860030164122,0.06446006658385228,0.1010417825998337,0.021553279639198127,0.05732296066919595,0.006180800213407525,0.0008762500522104027
46.893966229521304,16.855647020436873,0.02742257222151091,0.061563445996214536,0.013501513651224565,0.0443122579929006,0.039450053513750374,0.06667860030164122,0.06446006658385228,0.1010417825998337,0.021553279639198127,0.05732296066919595,0.006180800213407525,0.0008762500522104027
46.89393990031328,16.855637526302377,0.02742257222151091,0.061563445996214536,0.013501513651224565,0.0443122579929006,0.039450053513750374,0.06667860030164122,0.06446006658385228,0.1010417825998337,0.021553279639198127,0.05732296066919595,0.006180800213407525,0.0008762500522104027
46.89391302407885,16.85562786743081,0.02742257222151091,0.061563445996214536,0.013501513651224565,0.0443122579929006,0.039450053513750374,0.06667860030164122,0.06446006658385228,0.1010417825998337,0.021553279639198127,0.05732296066919595,0.006180800213407525,0.0008762500522104027
46.89388616558234,16.855618247772657,0.02742257222151091,0.061563445996214536,0.013501513651224565,0.0443122579929006,0.039450053513750374,0.06667860030164122,0.06446006658385228,0.1010417825998337,0.021553279639198127,0.05732296066919595,0.006180800213407525,0.0008762500522104027
46.89385964753909,16.855608782270618,0.02742257222151091,0.061563445996214536,0.013501513651224565,0.0443122579929006,0.039450053513750374,0.06667860030164122,0.06446006658385228,0.1010417825998337,0.021553279639198127,0.05732296066919595,0.006180800213407525,0.0008762500522104027
46.89383279902365,16.855599231434596,0.02742257222151091,0.061563445996214536,0.013501513651224565,0.0443122579929006,0.039450053513750374,0.06667860030164122,0.06446006658385228,0.1010417825998337,0.021553279639198127,0.05732296066919595,0.006180800213407525,0.0008762500522104027
46.8938062822746,16.85558983085612,0.02742257222151091,0.061563445996214536,0.013501513651224565,0.0443122579929006,0.039450053513750374,0.06667860030164122,0.06446006658385228,0.1010417825998337,0.021553279639198127,0.05732296066919595,0.006180800213407525,0.0008762500522104027
46.893779616934296,16.8555804291482,0.02742257222151091,0.061563445996214536,0.013501513651224565,0.0443122579929006,0.039450053513750374,0.06667860030164122,0.06446006658385228,0.1010417825998337,0.021553279639198127,0.05732296066919595,0.006180800213407525,0.0008762500522104027
46.89375328337469,16.855571304237678,0.02742257222151091,0.061563445996214536,0.013501513651224565,0.0443122579929006,0.039450053513750374,0.06667860030164122,0.06446006658385228,0.1010417825998337,0.021553279639198127,0.05732296066919595,0.006180800213407525,0.0008762500522104027
46.89372636902232,16.85556215982277,0.006578043183485515,0.04401037959877281,0.014745796377019234,0.04550489327707015,0.020688357568949208,0.036663802710872974,0.04069635434315425,0.16655454884090484,0.16200324911869637,0.06302720361986595,0.007574989403120487,0.0017301199917738302
46.893699452385626,16.85555319789111,0.006578043183485515,0.04401037959877281,0.014745796377019234,0.04550489327707015,0.020688357568949208,0.036663802710872974,0.04069635434315425,0.16655454884090484,0.16200324911869637,0.06302720361986595,0.007574989403120487,0.0017301199917738302
46.89367286384441,16.85554452460055,0.006578043183485515,0.04401037959877281,0.014745796377019234,0.04550489327707015,0.020688357568949208,0.036663802710872974,0.04069635434315425,0.16655454884090484,0.16200324911869637,0.06302720361986595,0.007574989403120487,0.0017301199917738302
46.89364653637575,16.855536111680966,0.006578043183485515,0.04401037959877281,0.014745796377019234,0.04550489327707015,0.020688357568949208,0.036663802710872974,0.04069635434315425,0.16655454884090484,0.16200324911869637,0.06302720361986595,0.007574989403120487,0.0017301199917738302
46.893620584071144,16.855527988793565,0.006578043183485515,0.04401037959877281,0.014745796377019234,0.04550489327707015,0.020688357568949208,0.036663802710872974,0.04069635434315425,0.16655454884090484,0.16200324911869637,0.06302720361986595,0.007574989403120487,0.0017301199917738302
46.89359390760052,16.855519814842236,0.016834600845616342,0.0858813330085199,0.014694222435493181,0.031886121149609044,0.025606186458772988,0.05656842305188171,0.07638697023024625,0.06566131775741364,0.026391508051022524,0.06871333864613852,0.005767295764006411,0.004607834275317693
46.8935675333803,16.85551188699641,0.016834600845616342,0.0858813330085199,0.014694222435493181,0.031886121149609044,0.025606186458772988,0.05656842305188171,0.07638697023024625,0.06566131775741364,0.026391508051022524,0.06871333864613852,0.005767295764006411,0.004607834275317693
46.89354106352104,16.85550388025565,0.016834600845616342,0.0858813330085199,0.014694222435493181,0.031886121149609044,0.025606186458772988,0.05656842305188171,0.07638697023024625,0.06566131775741364,0.026391508051022524,0.06871333864613852,0.005767295764006411,0.004607834275317693
46.89351431057284,16.855495684545794,0.016834600845616342,0.0858813330085199,0.014694222435493181,0.031886121149609044,0.025606186458772988,0.05656842305188171,0.07638697023024625,0.06566131775741364,0.026391508051022524,0.06871333864613852,0.005767295764006411,0.004607834275317693
46.89348844431413,16.85548766098827,0.016834600845616342,0.0858813330085199,0.014694222435493181,0.031886121149609044,0.025606186458772988,0.05656842305188171,0.07638697023024625,0.06566131775741364,0.026391508051022524,0.06871333864613852,0.005767295764006411,0.004607834275317693
46.8934621107359,16.855479391314525,0.04009143482325134,0.08210739877411515,0.008236011122310965,0.02555027258947956,0.007942482440926475,0.05779065205309128,0.08468106139831812,0.16494056830633366,0.019646796887554704,0.06587257527002682,0.0004613157319852627,0.00128957025086084
46.89343594894074,16.855471073768545,0.04009143482325134,0.08210739877411515,0.008236011122310965,0.02555027258947956,0.007942482440926475,0.05779065205309128,0.08468106139831812,0.16494056830633366,0.019646796887554704,0.06587257527002682,0.0004613157319852627,0.00128957025086084
46.89340872504094,16.855462310059988,0.04009143482325134,0.08210739877411515,0.008236011122310965,0.02555027258947956,0.007942482440926475,0.05779065205309128,0.08468106139831812,0.16494056830633366,0.019646796887554704,0.06587257527002682,0.0004613157319852627,0.00128957025086084
46.89338210686133,16.855453633601865,0.04009143482325134,0.08210739877411515,0.008236011122310965,0.02555027258947956,0.007942482440926475,0.05779065205309128,0.08468106139831812,0.16494056830633366,0.019646796887554704,0.06587257527002682,0.0004613157319852627,0.00128957025086084
46.89335535480267,16.85544481004477,0.04009143482325134,0.08210739877411515,0.008236011122310965,0.02555027258947956,0.007942482440926475,0.05779065205309128,0.08468106139831812,0.16494056830633366,0.019646796887554704,0.06587257527002682,0.0004613157319852627,0.00128957025086084
46.89332843986296,16.855435892630442,0.047050917297232396,0.07116447757338287,0.003946829423816583,0.01972441458732815,0.053026741533907386,0.027774618692149908,0.05171898856237727,0.0811112222630954,0.14305495613871744,0.026005603728038253,0.0012427261756580749,0.0020630662624935114
46.89330168566393,16.855427008642465,0.047050917297232396,0.07116447757338287,0.003946829423816583,0.01972441458732815,0.053026741533907386,0.027774618692149908,0.05171898856237727,0.0811112222630954,0.14305495613871744,0.026005603728038253,0.0012427261756580749,0.0020630662624935114
46.89327509343233,16.85541815890861,0.047050917297232396,0.07116447757338287,0.003946829423816583,0.01972441458732815,0.053026741533907386,0.027774618692149908,0.05171898856237727,0.0811112222630954,0.14305495613871744,0.026005603728038253,0.0012427261756580749,0.0020630662624935114
46.8932482061247,16.855409191235793,0.047050917297232396,0.07116447757338287,0.003946829423816583,0.01972441458732815,0.053026741533907386,0.027774618692149908,0.05171898856237727,0.0811112222630954,0.14305495613871744,0.026005603728038253,0.0012427261756580749,0.0020630662624935114
46.893221779638445,16.855400357983473,0.047050917297232396,0.07116447757338287,0.003946829423816583,0.01972441458732815,0.053026741533907386,0.027774618692149908,0.05171898856237727,0.0811112222630954,0.14305495613871744,0.026005603728038253,0.0012427261756580749,0.0020630662624935114
46.89319517443928,16.85539144574554,0.017371381834584837,0.04350614823430103,0.010058396702428318,0.017328670242164466,0.09181488473030976,0.03899290199557288,0.23227159171604977,0.24659310423028286,0.20767894150842484,0.1228078408175432,0.0006379172487410866,0.0007645533065885261
46.893168622827424,16.85538253226273,0.017371381834584837,0.04350614823430103,0.010058396702428318,0.017328670242164466,0.09181488473030976,0.03899290199557288,0.23227159171604977,0.24659310423028286,0.20767894150842484,0.1228078408175432,0.0006379172487410866,0.0007645533065885261
46.89314213777939,16.855373626928394,0.017371381834584837,0.04350614823430103,0.010058396702428318,0.017328670242164466,0.09181488473030976,0.03899290199557288,0.23227159171604977,0.24659310423028286,0.20767894150842484,0.1228078408175432,0.0006379172487410866,0.0007645533065885261
46.893115237719975,16.8553646090365,0.017371381834584837,0.04350614823430103,0.010058396702428318,0.017328670242164466,0.09181488473030976,0.03899290199557288,0.23227159171604977,0.24659310423028286,0.20767894150842484,0.1228078408175432,0.0006379172487410866,0.0007645533065885261
46.89308932174013,16.855355955405482,0.017371381834584837,0.04350614823430103,0.010058396702428318,0.017328670242164466,0.09181488473030976,0.03899290199557288,0.23227159171604977,0.24659310423028286,0.20767894150842484,0.1228078408175432,0.0006379172487410866,0.0007645533065885261
46.893062218152835,16.855346941150945,0.030492112946339085,0.044615715796837464,0.018468766634394746,0.02001937924775008,0.03549785345430711,0.03673283578138365,0.026355737137664117,0.046826734592539304,0.03167412062899806,0.04795887253941912,0.0001884924988037215,0.0005920666042490438
46.89303529537212,16.855338023227585,0.030492112946339085,0.044615715796837464,0.018468766634394746,0.02001937924775008,0.03549785345430711,0.03673283578138365,0.026355737137664117,0.046826734592539304,0.03167412062899806,0.04795887253941912,0.0001884924988037215,0.0005920666042490438
46.89300814938572,16.855329067750326,0.030492112946339085,0.044615715796837464,0.018468766634394746,0.02001937924775008,0.03549785345430711,0.03673283578138365,0.026355737137664117,0.046826734592539304,0.03167412062899806,0.04795887253941912,0.0001884924988037215,0.0005920666042490438
46.892981100497686,16.855320180465004,0.030492112946339085,0.044615715796837464,0.018468766634394746,0.02001937924775008,0.03549785345430711,0.03673283578138365,0.026355737137664117,0.046826734592539304,0.03167412062899806,0.04795887253941912,0.0001884924988037215,0.0005920666042490438
46.89295465696631,16.85531152683192,0.030492112946339085,0.044615715796837464,0.018468766634394746,0.02001937924775008,0.03549785345430711,0.03673283578138365,0.026355737137664117,0.046826734592539304,0.03167412062899806,0.04795887253941912,0.0001884924988037215,0.0005920666042490438
46.89292792645064,16.855302811543364,0.030492112946339085,0.044615715796837464,0.018468766634394746,0.02001937924775008,0.03549785345430711,0.03673283578138365,0.026355737137664117,0.046826734592539304,0.03167412062899806,0.04795887253941912,0.0001884924988037215,0.0005920666042490438
46.89290118945454,16.8552941025002,0.030492112946339085,0.044615715796837464,0.018468766634394746,0.02001937924775008,0.03549785345430711,0.03673283578138365,0.026355737137664117,0.046826734592539304,0.03167412062899806,0.04795887253941912,0.0001884924988037215,0.0005920666042490438
46.892874509591195,16.855285414446563,0.030492112946339085,0.044615715796837464,0.018468766634394746,0.02001937924775008,0.03549785345430711,0.03673283578138365,0.026355737137664117,0.046826734592539304,0.03167412062899806,0.04795887253941912,0.0001884924988037215,0.0005920666042490438
46.89284766987196,16.85527667673933,0.030492112946339085,0.044615715796837464,0.018468766634394746,0.02001937924775008,0.03549785345430711,0.03673283578138365,0.026355737137664117,0.046826734592539304,0.03167412062899806,0.04795887253941912,0.0001884924988037215,0.0005920666042490438
46.89282130627315,16.855268096382083,0.030492112946339085,0.044615715796837464,0.018468766634394746,0.02001937924775008,0.03549785345430711,0.03673283578138365,0.026355737137664117,0.046826734592539304,0.03167412062899806,0.04795887253941912,0.0001884924988037215,0.0005920666042490438
46.89279429479241,16.855259307580265,0.030492112946339085,0.044615715796837464,0.018468766634394746,0.02001937924775008,0.03549785345430711,0.03673283578138365,0.026355737137664117,0.046826734592539304,0.03167412062899806,0.04795887253941912,0.0001884924988037215,0.0005920666042490438
46.89276797524563,16.855250746270684,0.030492112946339085,0.044615715796837464,0.018468766634394746,0.02001937924775008,0.03549785345430711,0.03673283578138365,0.026355737137664117,0.046826734592539304,0.03167412062899806,0.04795887253941912,0.0001884924988037215,0.0005920666042490438
46.892741114909015,16.85524201145142,0.030492112946339085,0.044615715796837464,0.018468766634394746,0.02001937924775008,0.03549785345430711,0.03673283578138365,0.026355737137664117,0.046826734592539304,0.03167412062899806,0.04795887253941912,0.0001884924988037215,0.0005920666042490438
46.892714157189104,16.855233246153173,0.030492112946339085,0.044615715796837464,0.018468766634394746,0.02001937924775008,0.03549785345430711,0.03673283578138365,0.026355737137664117,0.046826734592539304,0.03167412062899806,0.04795887253941912,0.0001884924988037215,0.0005920666042490438
46.892687412776155,16.855224539444883,0.030492112946339085,0.044615715796837464,0.018468766634394746,0.02001937924775008,0.03549785345430711,0.03673283578138365,0.026355737137664117,0.046826734592539304,0.03167412062899806,0.04795887253941912,0.0001884924988037215,0.0005920666042490438
46.89266047288376,16.855215755063742,0.06266803687795403,0.14551541115428643,0.016338180937523105,0.05942686072966584,0.01430356478099762,0.0998651509974262,0.04214229933430346,0.11876577571172979,0.04030866821721648,0.09364817395070942,0.0008022708366982848,0.0015622874780069603
46.892633833303684,16.855207054578695,0.06266803687795403,0.14551541115428643,0.016338180937523105,0.05942686072966584,0.01430356478099762,0.0998651509974262,0.04214229933430346,0.11876577571172979,0.04030866821721648,0.09364817395070942,0.0008022708366982848,0.0015622874780069603
46.89260763921521,16.855198485815123,0.06266803687795403,0.14551541115428643,0.016338180937523105,0.05942686072966584,0.01430356478099762,0.0998651509974262,0.04214229933430346,0.11876577571172979,0.04030866821721648,0.09364817395070942,0.0008022708366982848,0.0015622874780069603
46.892580870784585,16.85518971487125,0.06266803687795403,0.14551541115428643,0.016338180937523105,0.05942686072966584,0.01430356478099762,0.0998651509974262,0.04214229933430346,0.11876577571172979,0.04030866821721648,0.09364817395070942,0.0008022708366982848,0.0015622874780069603
46.89255440317767,16.855181028098517,0.06266803687795403,0.14551541115428643,0.016338180937523105,0.05942686072966584,0.01430356478099762,0.0998651509974262,0.04214229933430346,0.11876577571172979,0.04030866821721648,0.09364817395070942,0.0008022708366982848,0.0015622874780069603
46.8925285545816,16.855172530488126,0.03491071937719539,0.05327856728038606,0.010446738803930192,0.029766030699381614,0.022816486765552257,0.04043552297662624,0.030084990523987037,0.05773492196050978,0.024718286256318275,0.03701222900161326,0.0005375125785357395,0.0006979636431423751
46.892502300135334,16.855163878273007,0.03491071937719539,0.05327856728038606,0.010446738803930192,0.029766030699381614,0.022816486765552257,0.04043552297662624,0.030084990523987037,0.05773492196050978,0.024718286256318275,0.03701222900161326,0.0005375125785357395,0.0006979636431423751
46.89247635128708,16.855155256969596,0.03491071937719539,0.05327856728038606,0.010446738803930192,0.029766030699381614,0.022816486765552257,0.04043552297662624,0.030084990523987037,0.05773492196050978,0.024718286256318275,0.03701222900161326,0.0005375125785357395,0.0006979636431423751
46.89244981471568,16.85514635921286,0.03491071937719539,0.05327856728038606,0.010446738803930192,0.029766030699381614,0.022816486765552257,0.04043552297662624,0.030084990523987037,0.05773492196050978,0.024718286256318275,0.03701222900161326,0.0005375125785357395,0.0006979636431423751
46.892423391208325,16.855137418369328,0.03491071937719539,0.05327856728038606,0.010446738803930192,0.029766030699381614,0.022816486765552257,0.04043552297662624,0.030084990523987037,0.05773492196050978,0.024718286256318275,0.03701222900161326,0.0005375125785357395,0.0006979636431423751
46.8923965393395,16.855128250362462,0.03491071937719539,0.05327856728038606,0.010446738803930192,0.029766030699381614,0.022816486765552257,0.04043552297662624,0.030084990523987037,0.05773492196050978,0.024718286256318275,0.03701222900161326,0.0005375125785357395,0.0006979636431423751
46.89237004887328,16.855119125087946,0.03491071937719539,0.05327856728038606,0.010446738803930192,0.029766030699381614,0.022816486765552257,0.04043552297662624,0.030084990523987037,0.05773492196050978,0.024718286256318275,0.03701222900161326,0.0005375125785357395,0.0006979636431423751
46.892343402336685,16.855109865805257,0.03491071937719539,0.05327856728038606,0.010446738803930192,0.029766030699381614,0.022816486765552257,0.04043552297662624,0.030084990523987037,0.05773492196050978,0.024718286256318275,0.03701222900161326,0.0005375125785357395,0.0006979636431423751
46.89231692099633,16.855100584736853,0.03491071937719539,0.05327856728038606,0.010446738803930192,0.029766030699381614,0.022816486765552257,0.04043552297662624,0.030084990523987037,0.05773492196050978,0.024718286256318275,0.03701222900161326,0.0005375125785357395,0.0006979636431423751
46.892289759205156,16.8550909804247,0.03491071937719539,0.05327856728038606,0.010446738803930192,0.029766030699381614,0.022816486765552257,0.04043552297662624,0.030084990523987037,0.05773492196050978,0.024718286256318275,0.03701222900161326,0.0005375125785357395,0.0006979636431423751
46.89226275911346,16.855081343218156,0.03491071937719539,0.05327856728038606,0.010446738803930192,0.029766030699381614,0.022816486765552257,0.04043552297662624,0.030084990523987037,0.05773492196050978,0.024718286256318275,0.03701222900161326,0.0005375125785357395,0.0006979636431423751
46.89223636068495,16.85507183566543,0.03491071937719539,0.05327856728038606,0.010446738803930192,0.029766030699381614,0.022816486765552257,0.04043552297662624,0.030084990523987037,0.05773492196050978,0.024718286256318275,0.03701222900161326,0.0005375125785357395,0.0006979636431423751
46.89220967647557,16.855062140591304,0.03491071937719539,0.05327856728038606,0.010446738803930192,0.029766030699381614,0.022816486765552257,0.04043552297662624,0.030084990523987037,0.05773492196050978,0.024718286256318275,0.03701222900161326,0.0005375125785357395,0.0006979636431423751
46.89218304421885,16.85505238046191,0.03491071937719539,0.05327856728038606,0.010446738803930192,0.029766030699381614,0.022816486765552257,0.04043552297662624,0.030084990523987037,0.05773492196050978,0.024718286256318275,0.03701222900161326,0.0005375125785357395,0.0006979636431423751
46.89215690064858,16.85504271873024,0.03491071937719539,0.05327856728038606,0.010446738803930192,0.029766030699381614,0.022816486765552257,0.04043552297662624,0.030084990523987037,0.05773492196050978,0.024718286256318275,0.03701222900161326,0.0005375125785357395,0.0006979636431423751
46.89213035557118,16.855032827653822,0.03491071937719539,0.05327856728038606,0.010446738803930192,0.029766030699381614,0.022816486765552257,0.04043552297662624,0.030084990523987037,0.05773492196050978,0.024718286256318275,0.03701222900161326,0.0005375125785357395,0.0006979636431423751
46.89210398103311,16.855022920155925,0.03491071937719539,0.05327856728038606,0.010446738803930192,0.029766030699381614,0.022816486765552257,0.04043552297662624,0.030084990523987037,0.05773492196050978,0.024718286256318275,0.03701222900161326,0.0005375125785357395,0.0006979636431423751
46.89207801999913,16.855013109348004,0.03491071937719539,0.05327856728038606,0.010446738803930192,0.029766030699381614,0.022816486765552257,0.04043552297662624,0.030084990523987037,0.05773492196050978,0.024718286256318275,0.03701222900161326,0.0005375125785357395,0.0006979636431423751
46.89205167765257,16.855003224743058,0.03491071937719539,0.05327856728038606,0.010446738803930192,0.029766030699381614,0.022816486765552257,0.04043552297662624,0.030084990523987037,0.05773492196050978,0.024718286256318275,0.03701222900161326,0.0005375125785357395,0.0006979636431423751
46.89202538423059,16.854993454034418,0.03491071937719539,0.05327856728038606,0.010446738803930192,0.029766030699381614,0.022816486765552257,0.04043552297662624,0.030084990523987037,0.05773492196050978,0.024718286256318275,0.03701222900161326,0.0005375125785357395,0.0006979636431423751
46.891998608284865,16.854983602929785,0.06343525861258908,0.1382331309970946,0.08615548116533042,0.02950217632239494,0.1036021795831125,0.04249322806588542,0.05303869208369521,0.10219067031985148,0.06976466889155956,0.10846232417202217,0.0010270118557479605,0.0017128490185685558
46.89197160429539,16.854973769867094,0.06343525861258908,0.1382331309970946,0.08615548116533042,0.02950217632239494,0.1036021795831125,0.04249322806588542,0.05303869208369521,0.10219067031985148,0.06976466889155956,0.10846232417202217,0.0010270118557479605,0.0017128490185685558
46.89194483500839,16.854964124163576,0.06343525861258908,0.1382331309970946,0.08615548116533042,0.02950217632239494,0.1036021795831125,0.04249322806588542,0.05303869208369521,0.10219067031985148,0.06976466889155956,0.10846232417202217,0.0010270118557479605,0.0017128490185685558
46.89191832852774,16.85495467397112,0.06343525861258908,0.1382331309970946,0.08615548116533042,0.02950217632239494,0.1036021795831125,0.04249322806588542,0.05303869208369521,0.10219067031985148,0.06976466889155956,0.10846232417202217,0.0010270118557479605,0.0017128490185685558
46.891892533900354,16.854945574686692,0.06343525861258908,0.1382331309970946,0.08615548116533042,0.02950217632239494,0.1036021795831125,0.04249322806588542,0.05303869208369521,0.10219067031985148,0.06976466889155956,0.10846232417202217,0.0010270118557479605,0.0017128490185685558
46.89186601119312,16.85493632317297,0.01435673959660858,0.04350614823430103,0.09473115937706138,0.09127318220440277,0.10615961977166959,0.2772097109886296,0.17682517326789168,0.24919865436117597,0.24108317635710844,0.3456309462855866,0.0012388150912832174,0.0007645533065885261
46.89183885584118,16.854926985991543,0.01435673959660858,0.04350614823430103,0.09473115937706138,0.09127318220440277,0.10615961977166959,0.2772097109886296,0.17682517326789168,0.24919865436117597,0.24108317635710844,0.3456309462855866,0.0012388150912832174,0.0007645533065885261
46.891812568159004,16.854918079424458,0.01435673959660858,0.04350614823430103,0.09473115937706138,0.09127318220440277,0.10615961977166959,0.2772097109886296,0.17682517326789168,0.24919865436117597,0.24108317635710844,0.3456309462855866,0.0012388150912832174,0.0007645533065885261
46.89178625301707,16.85490929326345,0.01435673959660858,0.04350614823430103,0.09473115937706138,0.09127318220440277,0.10615961977166959,0.2772097109886296,0.17682517326789168,0.24919865436117597,0.24108317635710844,0.3456309462855866,0.0012388150912832174,0.0007645533065885261
46.891759731966225,16.854900568938188,0.01435673959660858,0.04350614823430103,0.09473115937706138,0.09127318220440277,0.10615961977166959,0.2772097109886296,0.17682517326789168,0.24919865436117597,0.24108317635710844,0.3456309462855866,0.0012388150912832174,0.0007645533065885261
46.89173348299545,16.85489206255854,0.007414510792985371,0.17687256993355713,0.014070491789562982,0.06836811331233934,0.06490031123125004,0.09005897913052396,0.015986004673839316,0.05868045568755148,0.05510570912514062,0.07844940599397895,0.003858671571098885,0.005725974225265492
46.89170646683522,16.854883440246983,0.007414510792985371,0.17687256993355713,0.014070491789562982,0.06836811331233934,0.06490031123125004,0.09005897913052396,0.015986004673839316,0.05868045568755148,0.05510570912514062,0.07844940599397895,0.003858671571098885,0.005725974225265492
46.891679590567676,16.854874995488153,0.007414510792985371,0.17687256993355713,0.014070491789562982,0.06836811331233934,0.06490031123125004,0.09005897913052396,0.015986004673839316,0.05868045568755148,0.05510570912514062,0.07844940599397895,0.003858671571098885,0.005725974225265492
46.89165281493563,16.85486669029895,0.007414510792985371,0.17687256993355713,0.014070491789562982,0.06836811331233934,0.06490031123125004,0.09005897913052396,0.015986004673839316,0.05868045568755148,0.05510570912514062,0.07844940599397895,0.003858671571098885,0.005725974225265492
46.89162587370956,16.85485814243093,0.007414510792985371,0.17687256993355713,0.014070491789562982,0.06836811331233934,0.06490031123125004,0.09005897913052396,0.015986004673839316,0.05868045568755148,0.05510570912514062,0.07844940599397895,0.003858671571098885,0.005725974225265492
46.89159955025192,16.85484951459361,0.045393966023449306,0.056661739095875865,0.010175637122788026,0.04047875556522077,0.0330676858572888,0.06186995311011576,0.021781880014778307,0.0444207194711663,0.01295331826798096,0.042145098324839356,0.003051123067198933,0.0010415583620118404
46.89157296587659,16.854840521315282,0.045393966023449306,0.056661739095875865,0.010175637122788026,0.04047875556522077,0.0330676858572888,0.06186995311011576,0.021781880014778307,0.0444207194711663,0.01295331826798096,0.042145098324839356,0.003051123067198933,0.0010415583620118404
46.891546299781496,16.854831214734226,0.045393966023449306,0.056661739095875865,0.010175637122788026,0.04047875556522077,0.0330676858572888,0.06186995311011576,0.021781880014778307,0.0444207194711663,0.01295331826798096,0.042145098324839356,0.003051123067198933,0.0010415583620118404
46.891519854362976,16.854821699416487,0.045393966023449306,0.056661739095875865,0.010175637122788026,0.04047875556522077,0.0330676858572888,0.06186995311011576,0.021781880014778307,0.0444207194711663,0.01295331826798096,0.042145098324839356,0.003051123067198933,0.0010415583620118404
46.891494553510654,16.85481232663526,0.045393966023449306,0.056661739095875865,0.010175637122788026,0.04047875556522077,0.0330676858572888,0.06186995311011576,0.021781880014778307,0.0444207194711663,0.01295331826798096,0.042145098324839356,0.003051123067198933,0.0010415583620118404
46.89146793970462,16.854802180112944,0.012067700368598486,0.04620886829365234,0.01011202995837414,0.024222069344163447,0.010372988012577898,0.020816492096925383,0.021384946448039812,0.016063259620727743,0.016806095187022755,0.04407376697829455,0.00040457164267752215,0.0005990664380670761
46.891441747076904,16.85479192115693,0.012067700368598486,0.04620886829365234,0.01011202995837414,0.024222069344163447,0.010372988012577898,0.020816492096925383,0.021384946448039812,0.016063259620727743,0.016806095187022755,0.04407376697829455,0.00040457164267752215,0.0005990664380670761
46.891414889090356,16.854781439601854,0.012067700368598486,0.04620886829365234,0.01011202995837414,0.024222069344163447,0.010372988012577898,0.020816492096925383,0.021384946448039812,0.016063259620727743,0.016806095187022755,0.04407376697829455,0.00040457164267752215,0.0005990664380670761
46.89138825979696,16.854771198159646,0.012067700368598486,0.04620886829365234,0.01011202995837414,0.024222069344163447,0.010372988012577898,0.020816492096925383,0.021384946448039812,0.016063259620727743,0.016806095187022755,0.04407376697829455,0.00040457164267752215,0.0005990664380670761
46.89136176970895,16.85476115769047,0.012067700368598486,0.04620886829365234,0.01011202995837414,0.024222069344163447,0.010372988012577898,0.020816492096925383,0.021384946448039812,0.016063259620727743,0.016806095187022755,0.04407376697829455,0.00040457164267752215,0.0005990664380670761
46.89133503787875,16.854751173071474,0.012067700368598486,0.04620886829365234,0.01011202995837414,0.024222069344163447,0.010372988012577898,0.020816492096925383,0.021384946448039812,0.016063259620727743,0.016806095187022755,0.04407376697829455,0.00040457164267752215,0.0005990664380670761
46.89130853473842,16.854741418540563,0.012067700368598486,0.04620886829365234,0.01011202995837414,0.024222069344163447,0.010372988012577898,0.020816492096925383,0.021384946448039812,0.016063259620727743,0.016806095187022755,0.04407376697829455,0.00040457164267752215,0.0005990664380670761
46.89128297880369,16.85473214764762,0.012067700368598486,0.04620886829365234,0.01011202995837414,0.024222069344163447,0.010372988012577898,0.020816492096925383,0.021384946448039812,0.016063259620727743,0.016806095187022755,0.04407376697829455,0.00040457164267752215,0.0005990664380670761
46.89125646985912,16.854722669589226,0.012067700368598486,0.04620886829365234,0.01011202995837414,0.024222069344163447,0.010372988012577898,0.020816492096925383,0.021384946448039812,0.016063259620727743,0.016806095187022755,0.04407376697829455,0.00040457164267752215,0.0005990664380670761
46.89122968522987,16.85471323013338,0.012067700368598486,0.04620886829365234,0.01011202995837414,0.024222069344163447,0.010372988012577898,0.020816492096925383,0.021384946448039812,0.016063259620727743,0.016806095187022755,0.04407376697829455,0.00040457164267752215,0.0005990664380670761
46.89120311658065,16.85470390697665,0.012067700368598486,0.04620886829365234,0.01011202995837414,0.024222069344163447,0.010372988012577898,0.020816492096925383,0.021384946448039812,0.016063259620727743,0.016806095187022755,0.04407376697829455,0.00040457164267752215,0.0005990664380670761
46.89117616970726,16.854694453857793,0.012067700368598486,0.04620886829365234,0.01011202995837414,0.024222069344163447,0.010372988012577898,0.020816492096925383,0.021384946448039812,0.016063259620727743,0.016806095187022755,0.04407376697829455,0.00040457164267752215,0.0005990664380670761
46.89115025602303,16.854685365798517,0.012067700368598486,0.04620886829365234,0.01011202995837414,0.024222069344163447,0.010372988012577898,0.020816492096925383,0.021384946448039812,0.016063259620727743,0.016806095187022755,0.04407376697829455,0.00040457164267752215,0.0005990664380670761
46.891123698195734,16.854676054482653,0.012067700368598486,0.04620886829365234,0.01011202995837414,0.024222069344163447,0.010372988012577898,0.020816492096925383,0.021384946448039812,0.016063259620727743,0.016806095187022755,0.04407376697829455,0.00040457164267752215,0.0005990664380670761
46.89109647523355,16.85466651273581,0.012067700368598486,0.04620886829365234,0.01011202995837414,0.024222069344163447,0.010372988012577898,0.020816492096925383,0.021384946448039812,0.016063259620727743,0.016806095187022755,0.04407376697829455,0.00040457164267752215,0.0005990664380670761
46.891069688992324,16.854657126786805,0.012067700368598486,0.04620886829365234,0.01011202995837414,0.024222069344163447,0.010372988012577898,0.020816492096925383,0.021384946448039812,0.016063259620727743,0.016806095187022755,0.04407376697829455,0.00040457164267752215,0.0005990664380670761
46.891043860217124,16.854648078887028,0.012067700368598486,0.04620886829365234,0.01011202995837414,0.024222069344163447,0.010372988012577898,0.020816492096925383,0.021384946448039812,0.016063259620727743,0.016806095187022755,0.04407376697829455,0.00040457164267752215,0.0005990664380670761
46.891017177037355,16.854638736275103,0.012067700368598486,0.04620886829365234,0.01011202995837414,0.024222069344163447,0.010372988012577898,0.020816492096925383,0.021384946448039812,0.016063259620727743,0.016806095187022755,0.04407376697829455,0.00040457164267752215,0.0005990664380670761
46.8909908741756,16.854629618665843,0.012067700368598486,0.04620886829365234,0.01011202995837414,0.024222069344163447,0.010372988012577898,0.020816492096925383,0.021384946448039812,0.016063259620727743,0.016806095187022755,0.04407376697829455,0.00040457164267752215,0.0005990664380670761
46.89096533028942,16.85462089566043,0.012067700368598486,0.04620886829365234,0.01011202995837414,0.024222069344163447,0.010372988012577898,0.020816492096925383,0.021384946448039812,0.016063259620727743,0.016806095187022755,0.04407376697829455,0.00040457164267752215,0.0005990664380670761
46.89093842324142,16.854611846798612,0.018507885733248516,0.05114679602002686,0.012470909372044887,0.021832348040500382,0.02638499685687365,0.03566521404658514,0.05152801522115043,0.07711410295358838,0.02543422256377491,0.0525188576886327,0.00032752500187079546,0.0004741165103282035
46.8909121083821,16.854603135192374,0.018507885733248516,0.05114679602002686,0.012470909372044887,0.021832348040500382,0.02638499685687365,0.03566521404658514,0.05152801522115043,0.07711410295358838,0.02543422256377491,0.0525188576886327,0.00032752500187079546,0.0004741165103282035
46.890885388205305,16.85459442862014,0.018507885733248516,0.05114679602002686,0.012470909372044887,0.021832348040500382,0.02638499685687365,0.03566521404658514,0.05152801522115043,0.07711410295358838,0.02543422256377491,0.0525188576886327,0.00032752500187079546,0.0004741165103282035
46.89085957853946,16.854586151494885,0.018507885733248516,0.05114679602002686,0.012470909372044887,0.021832348040500382,0.02638499685687365,0.03566521404658514,0.05152801522115043,0.07711410295358838,0.02543422256377491,0.0525188576886327,0.00032752500187079546,0.0004741165103282035
46.89083339334582,16.85457788670998,0.018507885733248516,0.05114679602002686,0.012470909372044887,0.021832348040500382,0.02638499685687365,0.03566521404658514,0.05152801522115043,0.07711410295358838,0.02543422256377491,0.0525188576886327,0.00032752500187079546,0.0004741165103282035
46.89080727291263,16.854569775226736,0.018507885733248516,0.05114679602002686,0.012470909372044887,0.021832348040500382,0.02638499685687365,0.03566521404658514,0.05152801522115043,0.07711410295358838,0.02543422256377491,0.0525188576886327,0.00032752500187079546,0.0004741165103282035
46.890780123627536,16.854561415074755,0.018507885733248516,0.05114679602002686,0.012470909372044887,0.021832348040500382,0.02638499685687365,0.03566521404658514,0.05152801522115043,0.07711410295358838,0.02543422256377491,0.0525188576886327,0.00032752500187079546,0.0004741165103282035
46.89075323395168,16.85455307572443,0.018507885733248516,0.05114679602002686,0.012470909372044887,0.021832348040500382,0.02638499685687365,0.03566521404658514,0.05152801522115043,0.07711410295358838,0.02543422256377491,0.0525188576886327,0.00032752500187079546,0.0004741165103282035
46.89072719900683,16.854544942412478,0.018507885733248516,0.05114679602002686,0.012470909372044887,0.021832348040500382,0.02638499685687365,0.03566521404658514,0.05152801522115043,0.07711410295358838,0.02543422256377491,0.0525188576886327,0.00032752500187079546,0.0004741165103282035
46.89070082145196,16.854536642863042,0.018507885733248516,0.05114679602002686,0.012470909372044887,0.021832348040500382,0.02638499685687365,0.03566521404658514,0.05152801522115043,0.07711410295358838,0.02543422256377491,0.0525188576886327,0.00032752500187079546,0.0004741165103282035
46.89067439260667,16.85452826750314,0.018507885733248516,0.05114679602002686,0.012470909372044887,0.021832348040500382,0.02638499685687365,0.03566521404658514,0.05152801522115043,0.07711410295358838,0.02543422256377491,0.0525188576886327,0.00032752500187079546,0.0004741165103282035
46.89064740342392,16.85451965300435,0.018507885733248516,0.05114679602002686,0.012470909372044887,0.021832348040500382,0.02638499685687365,0.03566521404658514,0.05152801522115043,0.07711410295358838,0.02543422256377491,0.0525188576886327,0.00032752500187079546,0.0004741165103282035
46.890620605247406,16.854511037981514,0.018507885733248516,0.05114679602002686,0.012470909372044887,0.021832348040500382,0.02638499685687365,0.03566521404658514,0.05152801522115043,0.07711410295358838,0.02543422256377491,0.0525188576886327,0.00032752500187079546,0.0004741165103282035
46.8905934288808,16.8545022389138,0.018507885733248516,0.05114679602002686,0.012470909372044887,0.021832348040500382,0.02638499685687365,0.03566521404658514,0.05152801522115043,0.07711410295358838,0.02543422256377491,0.0525188576886327,0.00032752500187079546,0.0004741165103282035
46.89056642436753,16.854493435175907,0.018507885733248516,0.05114679602002686,0.012470909372044887,0.021832348040500382,0.02638499685687365,0.03566521404658514,0.05152801522115043,0.07711410295358838,0.02543422256377491,0.0525188576886327,0.00032752500187079546,0.0004741165103282035
46.89053865728444,16.854484335237164,0.018507885733248516,0.05114679602002686,0.012470909372044887,0.021832348040500382,0.02638499685687365,0.03566521404658514,0.05152801522115043,0.07711410295358838,0.02543422256377491,0.0525188576886327,0.00032752500187079546,0.0004741165103282035
46.89051253237618,16.85447573198397,0.018507885733248516,0.05114679602002686,0.012470909372044887,0.021832348040500382,0.02638499685687365,0.03566521404658514,0.05152801522115043,0.07711410295358838,0.02543422256377491,0.0525188576886327,0.00032752500187079546,0.0004741165103282035
46.89048609495448,16.85446698505376,0.018507885733248516,0.05114679602002686,0.012470909372044887,0.021832348040500382,0.02638499685687365,0.03566521404658514,0.05152801522115043,0.07711410295358838,0.02543422256377491,0.0525188576886327,0.00032752500187079546,0.0004741165103282035
46.89045973177223,16.854458222039053,0.018507885733248516,0.05114679602002686,0.012470909372044887,0.021832348040500382,0.02638499685687365,0.03566521404658514,0.05152801522115043,0.07711410295358838,0.02543422256377491,0.0525188576886327,0.00032752500187079546,0.0004741165103282035
46.89043285531238,16.854449246834903,0.018507885733248516,0.05114679602002686,0.012470909372044887,0.021832348040500382,0.02638499685687365,0.03566521404658514,0.05152801522115043,0.07711410295358838,0.02543422256377491,0.0525188576886327,0.00032752500187079546,0.0004741165103282035
46.890406296415534,16.85444033663022,0.018507885733248516,0.05114679602002686,0.012470909372044887,0.021832348040500382,0.02638499685687365,0.03566521404658514,0.05152801522115043,0.07711410295358838,0.02543422256377491,0.0525188576886327,0.00032752500187079546,0.0004741165103282035
46.89037964816354,16.85443135563281,0.018507885733248516,0.05114679602002686,0.012470909372044887,0.021832348040500382,0.02638499685687365,0.03566521404658514,0.05152801522115043,0.07711410295358838,0.02543422256377491,0.0525188576886327,0.00032752500187079546,0.0004741165103282035
46.890353615241594,16.854422545095478,0.018507885733248516,0.05114679602002686,0.012470909372044887,0.021832348040500382,0.02638499685687365,0.03566521404658514,0.05152801522115043,0.07711410295358838,0.02543422256377491,0.0525188576886327,0.00032752500187079546,0.0004741165103282035
46.8903273997739,16.854413680383878,0.018507885733248516,0.05114679602002686,0.012470909372044887,0.021832348040500382,0.02638499685687365,0.03566521404658514,0.05152801522115043,0.07711410295358838,0.02543422256377491,0.0525188576886327,0.00032752500187079546,0.0004741165103282035
46.890300433556504,16.854404586920122,0.018507885733248516,0.05114679602002686,0.012470909372044887,0.021832348040500382,0.02638499685687365,0.03566521404658514,0.05152801522115043,0.07711410295358838,0.02543422256377491,0.0525188576886327,0.00032752500187079546,0.0004741165103282035
46.89027323814654,16.854395441779364,0.01221743201196301,0.043728018218857405,0.010902031445554603,0.023139133858364455,0.00607652126524866,0.03589302630848027,0.08778644083527605,0.13813192299696364,0.023152553303540158,0.04494276074198655,0.00024094343414269743,0.0006748389881914204
46.89024632336007,16.85438641615061,0.01221743201196301,0.043728018218857405,0.010902031445554603,0.023139133858364455,0.00607652126524866,0.03589302630848027,0.08778644083527605,0.13813192299696364,0.023152553303540158,0.04494276074198655,0.00024094343414269743,0.0006748389881914204
46.8902193595272,16.854377398984827,0.01221743201196301,0.043728018218857405,0.010902031445554603,0.023139133858364455,0.00607652126524866,0.03589302630848027,0.08778644083527605,0.13813192299696364,0.023152553303540158,0.04494276074198655,0.00024094343414269743,0.0006748389881914204
46.890193579462384,16.854368800844448,0.01221743201196301,0.043728018218857405,0.010902031445554603,0.023139133858364455,0.00607652126524866,0.03589302630848027,0.08778644083527605,0.13813192299696364,0.023152553303540158,0.04494276074198655,0.00024094343414269743,0.0006748389881914204
46.89016709659462,16.85435999171274,0.01221743201196301,0.043728018218857405,0.010902031445554603,0.023139133858364455,0.00607652126524866,0.03589302630848027,0.08778644083527605,0.13813192299696364,0.023152553303540158,0.04494276074198655,0.00024094343414269743,0.0006748389881914204
46.89014143704369,16.854351478926638,0.028028575532118,0.059802216956210144,0.00786694767892464,0.026584208003811977,0.03762330134209169,0.06459211025373951,0.0746529195561189,0.07219731439209032,0.028960680058082278,0.08345372519442706,0.00033705085670086865,0.0010095158108606487
46.89011553867107,16.854342908823277,0.028028575532118,0.059802216956210144,0.00786694767892464,0.026584208003811977,0.03762330134209169,0.06459211025373951,0.0746529195561189,0.07219731439209032,0.028960680058082278,0.08345372519442706,0.00033705085670086865,0.0010095158108606487
46.89008944002289,16.854334291515002,0.028028575532118,0.059802216956210144,0.00786694767892464,0.026584208003811977,0.03762330134209169,0.06459211025373951,0.0746529195561189,0.07219731439209032,0.028960680058082278,0.08345372519442706,0.00033705085670086865,0.0010095158108606487
46.89006395700323,16.854325895810355,0.028028575532118,0.059802216956210144,0.00786694767892464,0.026584208003811977,0.03762330134209169,0.06459211025373951,0.0746529195561189,0.07219731439209032,0.028960680058082278,0.08345372519442706,0.00033705085670086865,0.0010095158108606487
46.890037267746536,16.854317122332812,0.028028575532118,0.059802216956210144,0.00786694767892464,0.026584208003811977,0.03762330134209169,0.06459211025373951,0.0746529195561189,0.07219731439209032,0.028960680058082278,0.08345372519442706,0.00033705085670086865,0.0010095158108606487
46.890010005915045,16.854308181610048,0.007093992161747854,0.024271358908082047,0.004411320049336946,0.02277044773737508,0.01835294252511189,0.030682554559155653,0.04602552508843918,0.06486215606191933,0.01771621590732835,0.02574197235176425,0.00013323268277751926,0.00034879337415167884
46.889983590082586,16.854299538798028,0.007093992161747854,0.024271358908082047,0.004411320049336946,0.02277044773737508,0.01835294252511189,0.030682554559155653,0.04602552508843918,0.06486215606191933,0.01771621590732835,0.02574197235176425,0.00013323268277751926,0.00034879337415167884
46.88995749759317,16.854291021769033,0.007093992161747854,0.024271358908082047,0.004411320049336946,0.02277044773737508,0.01835294252511189,0.030682554559155653,0.04602552508843918,0.06486215606191933,0.01771621590732835,0.02574197235176425,0.00013323268277751926,0.00034879337415167884
46.889930955106784,16.854282378479287,0.007093992161747854,0.024271358908082047,0.004411320049336946,0.02277044773737508,0.01835294252511189,0.030682554559155653,0.04602552508843918,0.06486215606191933,0.01771621590732835,0.02574197235176425,0.00013323268277751926,0.00034879337415167884
46.88990439099433,16.854273744061064,0.007093992161747854,0.024271358908082047,0.004411320049336946,0.02277044773737508,0.01835294252511189,0.030682554559155653,0.04602552508843918,0.06486215606191933,0.01771621590732835,0.02574197235176425,0.00013323268277751926,0.00034879337415167884
46.88987851122757,16.854265260704587,0.003063793497255416,0.027942086993778724,0.006934961375948642,0.02624529249576257,0.016162572314503902,0.03515835181762526,0.09335480471048589,0.13663104657614167,0.015470973379627523,0.03487549250396864,0.00020393432081103953,0.0004953995409581247
46.88985065237015,16.85425601449466,0.003063793497255416,0.027942086993778724,0.006934961375948642,0.02624529249576257,0.016162572314503902,0.03515835181762526,0.09335480471048589,0.13663104657614167,0.015470973379627523,0.03487549250396864,0.00020393432081103953,0.0004953995409581247
46.88982507595456,16.85424742183483,0.003063793497255416,0.027942086993778724,0.006934961375948642,0.02624529249576257,0.016162572314503902,0.03515835181762526,0.09335480471048589,0.13663104657614167,0.015470973379627523,0.03487549250396864,0.00020393432081103953,0.0004953995409581247
46.88979802842265,16.854238226827654,0.003063793497255416,0.027942086993778724,0.006934961375948642,0.02624529249576257,0.016162572314503902,0.03515835181762526,0.09335480471048589,0.13663104657614167,0.015470973379627523,0.03487549250396864,0.00020393432081103953,0.0004953995409581247
46.889770935999614,16.854228905355935,0.003063793497255416,0.027942086993778724,0.006934961375948642,0.02624529249576257,0.016162572314503902,0.03515835181762526,0.09335480471048589,0.13663104657614167,0.015470973379627523,0.03487549250396864,0.00020393432081103953,0.0004953995409581247
46.88974415355876,16.854219581340327,0.01590584773810015,0.04347771306920818,0.016884562566282735,0.025816708509631876,0.009320693966687407,0.03100788969038438,0.016969190538898917,0.038950620280127836,0.022496597689002626,0.048599136853798006,0.00029754510593786273,0.0004997608564480823
46.88971775442624,16.854210284687976,0.01590584773810015,0.04347771306920818,0.016884562566282735,0.025816708509631876,0.009320693966687407,0.03100788969038438,0.016969190538898917,0.038950620280127836,0.022496597689002626,0.048599136853798006,0.00029754510593786273,0.0004997608564480823
46.88969159776916,16.854200969773984,0.01590584773810015,0.04347771306920818,0.016884562566282735,0.025816708509631876,0.009320693966687407,0.03100788969038438,0.016969190538898917,0.038950620280127836,0.022496597689002626,0.048599136853798006,0.00029754510593786273,0.0004997608564480823
46.889665746261564,16.85419168440151,0.01590584773810015,0.04347771306920818,0.016884562566282735,0.025816708509631876,0.009320693966687407,0.03100788969038438,0.016969190538898917,0.038950620280127836,0.022496597689002626,0.048599136853798006,0.00029754510593786273,0.0004997608564480823
46.889638528888774,16.85418185961295,0.01590584773810015,0.04347771306920818,0.016884562566282735,0.025816708509631876,0.009320693966687407,0.03100788969038438,0.016969190538898917,0.038950620280127836,0.022496597689002626,0.048599136853798006,0.00029754510593786273,0.0004997608564480823
46.88961124496888,16.854171960646582,0.01590584773810015,0.04347771306920818,0.016884562566282735,0.025816708509631876,0.009320693966687407,0.03100788969038438,0.016969190538898917,0.038950620280127836,0.022496597689002626,0.048599136853798006,0.00029754510593786273,0.0004997608564480823
46.88958484210638,16.854162333428402,0.01590584773810015,0.04347771306920818,0.016884562566282735,0.025816708509631876,0.009320693966687407,0.03100788969038438,0.016969190538898917,0.038950620280127836,0.022496597689002626,0.048599136853798006,0.00029754510593786273,0.0004997608564480823
46.889558661390026,16.85415274059178,0.01590584773810015,0.04347771306920818,0.016884562566282735,0.025816708509631876,0.009320693966687407,0.03100788969038438,0.016969190538898917,0.038950620280127836,0.022496597689002626,0.048599136853798006,0.00029754510593786273,0.0004997608564480823
46.889531426640744,16.85414271218723,0.01590584773810015,0.04347771306920818,0.016884562566282735,0.025816708509631876,0.009320693966687407,0.03100788969038438,0.016969190538898917,0.038950620280127836,0.022496597689002626,0.048599136853798006,0.00029754510593786273,0.0004997608564480823
46.88950507820431,16.854132962139317,0.01590584773810015,0.04347771306920818,0.016884562566282735,0.025816708509631876,0.009320693966687407,0.03100788969038438,0.016969190538898917,0.038950620280127836,0.022496597689002626,0.048599136853798006,0.00029754510593786273,0.0004997608564480823
46.889478926293,16.854123238048498,0.014648325242345665,0.05393057993142793,0.0153561287039328,0.06793119509713955,0.019763170213771785,0.0636313184261651,0.05681805920616628,0.051466179631753275,0.015425268081855613,0.05337204876654006,9.371721192721201e-05,0.0006383613334029699
46.88945303557854,16.854113583309363,0.014648325242345665,0.05393057993142793,0.0153561287039328,0.06793119509713955,0.019763170213771785,0.0636313184261651,0.05681805920616628,0.051466179631753275,0.015425268081855613,0.05337204876654006,9.371721192721201e-05,0.0006383613334029699
46.88942601208323,16.854103546300035,0.014648325242345665,0.05393057993142793,0.0153561287039328,0.06793119509713955,0.019763170213771785,0.0636313184261651,0.05681805920616628,0.051466179631753275,0.015425268081855613,0.05337204876654006,9.371721192721201e-05,0.0006383613334029699
46.88939940340995,16.854093709441344,0.014648325242345665,0.05393057993142793,0.0153561287039328,0.06793119509713955,0.019763170213771785,0.0636313184261651,0.05681805920616628,0.051466179631753275,0.015425268081855613,0.05337204876654006,9.371721192721201e-05,0.0006383613334029699
46.88937283048092,16.85408393146246,0.014648325242345665,0.05393057993142793,0.0153561287039328,0.06793119509713955,0.019763170213771785,0.0636313184261651,0.05681805920616628,0.051466179631753275,0.015425268081855613,0.05337204876654006,9.371721192721201e-05,0.0006383613334029699
46.88934551908356,16.854073929353156,0.07855424861706066,0.13357132963754098,0.08709618371375238,0.16946181728356138,0.11947313009614456,0.0980042366776911,0.1819875209323168,0.2011278093468967,0.15452524378275018,0.11415334179969314,0.0007399626952810703,0.001397852269743888
46.88931902879877,16.854064274084585,0.07855424861706066,0.13357132963754098,0.08709618371375238,0.16946181728356138,0.11947313009614456,0.0980042366776911,0.1819875209323168,0.2011278093468967,0.15452524378275018,0.11415334179969314,0.0007399626952810703,0.001397852269743888
46.889293268684256,16.85405492854438,0.07855424861706066,0.13357132963754098,0.08709618371375238,0.16946181728356138,0.11947313009614456,0.0980042366776911,0.1819875209323168,0.2011278093468967,0.15452524378275018,0.11415334179969314,0.0007399626952810703,0.001397852269743888
46.88926655399437,16.854045282130585,0.07855424861706066,0.13357132963754098,0.08709618371375238,0.16946181728356138,0.11947313009614456,0.0980042366776911,0.1819875209323168,0.2011278093468967,0.15452524378275018,0.11415334179969314,0.0007399626952810703,0.001397852269743888
46.88923940613607,16.854035534043515,0.07855424861706066,0.13357132963754098,0.08709618371375238,0.16946181728356138,0.11947313009614456,0.0980042366776911,0.1819875209323168,0.2011278093468967,0.15452524378275018,0.11415334179969314,0.0007399626952810703,0.001397852269743888
46.88921272713623,16.854026066918273,0.05023137870208762,0.04350614823430103,0.05711457807038837,0.058431100382653686,0.10026195119067062,0.24758691483413856,0.295375088070205,0.38089678302554636,0.15527904313462565,0.21058250225474637,0.0014947607840507737,0.0007645533065885261
46.88918587374996,16.85401666312782,0.05023137870208762,0.04350614823430103,0.05711457807038837,0.058431100382653686,0.10026195119067062,0.24758691483413856,0.295375088070205,0.38089678302554636,0.15527904313462565,0.21058250225474637,0.0014947607840507737,0.0007645533065885261
46.88915877870621,16.854007301162767,0.05023137870208762,0.04350614823430103,0.05711457807038837,0.058431100382653686,0.10026195119067062,0.24758691483413856,0.295375088070205,0.38089678302554636,0.15527904313462565,0.21058250225474637,0.0014947607840507737,0.0007645533065885261
46.889132242777244,16.853998254688708,0.05023137870208762,0.04350614823430103,0.05711457807038837,0.058431100382653686,0.10026195119067062,0.24758691483413856,0.295375088070205,0.38089678302554636,0.15527904313462565,0.21058250225474637,0.0014947607840507737,0.0007645533065885261
46.889105653443515,16.85398931056099,0.05023137870208762,0.04350614823430103,0.05711457807038837,0.058431100382653686,0.10026195119067062,0.24758691483413856,0.295375088070205,0.38089678302554636,0.15527904313462565,0.21058250225474637,0.0014947607840507737,0.0007645533065885261
46.88907837726784,16.853980259955588,0.04115260799653122,0.1116144821883091,0.02633754978575445,0.0749959891938819,0.08677421322465127,0.08470324223313176,0.1515042727245003,0.1518166694151502,0.06902897374328543,0.09818130140593834,0.0002454567406923876,0.0007778791889561707
46.88905081919197,16.853971243061036,0.04115260799653122,0.1116144821883091,0.02633754978575445,0.0749959891938819,0.08677421322465127,0.08470324223313176,0.1515042727245003,0.1518166694151502,0.06902897374328543,0.09818130140593834,0.0002454567406923876,0.0007778791889561707
46.88902427811657,16.853962678255524,0.04115260799653122,0.1116144821883091,0.02633754978575445,0.0749959891938819,0.08677421322465127,0.08470324223313176,0.1515042727245003,0.1518166694151502,0.06902897374328543,0.09818130140593834,0.0002454567406923876,0.0007778791889561707
46.88899750134751,16.85395407632062,0.04115260799653122,0.1116144821883091,0.02633754978575445,0.0749959891938819,0.08677421322465127,0.08470324223313176,0.1515042727245003,0.1518166694151502,0.06902897374328543,0.09818130140593834,0.0002454567406923876,0.0007778791889561707
46.888972063307186,16.853945891484404,0.04115260799653122,0.1116144821883091,0.02633754978575445,0.0749959891938819,0.08677421322465127,0.08470324223313176,0.1515042727245003,0.1518166694151502,0.06902897374328543,0.09818130140593834,0.0002454567406923876,0.0007778791889561707
46.88894524184895,16.853937247855214,0.046244153805889636,0.11183908946107421,0.026167589715306756,0.03963760586901566,0.08954778617947953,0.07978474702832117,0.023579731186385608,0.07434550419798834,0.13800204586537723,0.18187189516113791,0.00021373682654683273,0.0007645533065885261
46.88891825573998,16.85392853701405,0.046244153805889636,0.11183908946107421,0.026167589715306756,0.03963760586901566,0.08954778617947953,0.07978474702832117,0.023579731186385608,0.07434550419798834,0.13800204586537723,0.18187189516113791,0.00021373682654683273,0.0007645533065885261
46.8888911104015,16.85391976047295,0.046244153805889636,0.11183908946107421,0.026167589715306756,0.03963760586901566,0.08954778617947953,0.07978474702832117,0.023579731186385608,0.07434550419798834,0.13800204586537723,0.18187189516113791,0.00021373682654683273,0.0007645533065885261
46.8888647304697,16.85391121766817,0.046244153805889636,0.11183908946107421,0.026167589715306756,0.03963760586901566,0.08954778617947953,0.07978474702832117,0.023579731186385608,0.07434550419798834,0.13800204586537723,0.18187189516113791,0.00021373682654683273,0.0007645533065885261
46.88883743258724,16.853902363362305,0.046244153805889636,0.11183908946107421,0.026167589715306756,0.03963760586901566,0.08954778617947953,0.07978474702832117,0.023579731186385608,0.07434550419798834,0.13800204586537723,0.18187189516113791,0.00021373682654683273,0.0007645533065885261
46.88881056070472,16.85389363310452,0.04420005384924335,0.04651150234096271,0.01622096933951443,0.028136865307775705,0.0788269629214082,0.07340082043344401,0.03792630892133089,0.07459976647106423,0.06152488197352111,0.0651629731870422,0.00016677872628437278,0.0007101508577040106
46.88878375820205,16.853884908534972,0.04420005384924335,0.04651150234096271,0.01622096933951443,0.028136865307775705,0.0788269629214082,0.07340082043344401,0.03792630892133089,0.07459976647106423,0.06152488197352111,0.0651629731870422,0.00016677872628437278,0.0007101508577040106
46.88875639213035,16.85387597746572,0.04420005384924335,0.04651150234096271,0.01622096933951443,0.028136865307775705,0.0788269629214082,0.07340082043344401,0.03792630892133089,0.07459976647106423,0.06152488197352111,0.0651629731870422,0.00016677872628437278,0.0007101508577040106
46.8887301146081,16.85386737965964,0.04420005384924335,0.04651150234096271,0.01622096933951443,0.028136865307775705,0.0788269629214082,0.07340082043344401,0.03792630892133089,0.07459976647106423,0.06152488197352111,0.0651629731870422,0.00016677872628437278,0.0007101508577040106
46.888703639109416,16.85385869530022,0.04420005384924335,0.04651150234096271,0.01622096933951443,0.028136865307775705,0.0788269629214082,0.07340082043344401,0.03792630892133089,0.07459976647106423,0.06152488197352111,0.0651629731870422,0.00016677872628437278,0.0007101508577040106
46.88867762240761,16.853850140144726,0.05184536505732422,0.09898929228115934,0.024110477366048492,0.07225652198193964,0.11425779925680885,0.21868715997655122,0.10388897322730671,0.21398087893578752,0.18514456933855647,0.22614666909001763,0.0004105786759923004,0.00102229835977196
46.88865043260362,16.853841176694374,0.05184536505732422,0.09898929228115934,0.024110477366048492,0.07225652198193964,0.11425779925680885,0.21868715997655122,0.10388897322730671,0.21398087893578752,0.18514456933855647,0.22614666909001763,0.0004105786759923004,0.00102229835977196
46.8886236437118,16.853832322887634,0.05184536505732422,0.09898929228115934,0.024110477366048492,0.07225652198193964,0.11425779925680885,0.21868715997655122,0.10388897322730671,0.21398087893578752,0.18514456933855647,0.22614666909001763,0.0004105786759923004,0.00102229835977196
46.88859810732035,16.85382386223578,0.05184536505732422,0.09898929228115934,0.024110477366048492,0.07225652198193964,0.11425779925680885,0.21868715997655122,0.10388897322730671,0.21398087893578752,0.18514456933855647,0.22614666909001763,0.0004105786759923004,0.00102229835977196
46.88857143522329,16.853815004564886,0.05184536505732422,0.09898929228115934,0.024110477366048492,0.07225652198193964,0.11425779925680885,0.21868715997655122,0.10388897322730671,0.21398087893578752,0.18514456933855647,0.22614666909001763,0.0004105786759923004,0.00102229835977196
46.88854366310972,16.853805780504004,0.03825745862864855,0.10999658901286223,0.015339541956195558,0.05289734161547025,0.03747453823742612,0.060898495389090396,0.23744836832193209,0.09713106341324985,0.11974160798552112,0.1631884760485557,0.0020490529642613682,0.003252754993175218
46.88851713172772,16.85379697564083,0.03825745862864855,0.10999658901286223,0.015339541956195558,0.05289734161547025,0.03747453823742612,0.060898495389090396,0.23744836832193209,0.09713106341324985,0.11974160798552112,0.1631884760485557,0.0020490529642613682,0.003252754993175218
46.88849098079702,16.85378830394051,0.03825745862864855,0.10999658901286223,0.015339541956195558,0.05289734161547025,0.03747453823742612,0.060898495389090396,0.23744836832193209,0.09713106341324985,0.11974160798552112,0.1631884760485557,0.0020490529642613682,0.003252754993175218
46.88846394757603,16.853779346990006,0.03825745862864855,0.10999658901286223,0.015339541956195558,0.05289734161547025,0.03747453823742612,0.060898495389090396,0.23744836832193209,0.09713106341324985,0.11974160798552112,0.1631884760485557,0.0020490529642613682,0.003252754993175218
46.88843774735908,16.853770673248256,0.03825745862864855,0.10999658901286223,0.015339541956195558,0.05289734161547025,0.03747453823742612,0.060898495389090396,0.23744836832193209,0.09713106341324985,0.11974160798552112,0.1631884760485557,0.0020490529642613682,0.003252754993175218
46.888410736994096,16.853761738852032,0.06417684021571712,0.12271846063339908,0.015432551601556738,0.04451491584269391,0.017107467429510855,0.0633215393537397,0.1441020813667022,0.15007711833721218,0.03279863218918079,0.0789670530681021,0.0008482248224480765,0.0013030248339092087
