lat,lon,std_acc_x,median_acc_x,std_acc_y,median_acc_y,std_acc_z,median_acc_z,std_gyr_x,median_gyr_x,std_gyr_y,median_gyr_y,std_gyr_z,median_gyr_z
46.8368184912605,16.847252000924545,0.007881685272436573,0.0031028927574937083,0.10602313281901254,0.03354990938757469,0.01410953484267453,0.021247992552053813,0.018653530228249816,0.0006664886499002046,0.021801087338412833,0.007117885288202843,0.002146020487932501,0.00046494339851141305
46.83682509961203,16.847330134890463,0.007881685272436573,0.0031028927574937083,0.10602313281901254,0.03354990938757469,0.01410953484267453,0.021247992552053813,0.018653530228249816,0.0006664886499002046,0.021801087338412833,0.007117885288202843,0.002146020487932501,0.00046494339851141305
46.83682597411914,16.84734820334718,0.007881685272436573,0.0031028927574937083,0.10602313281901254,0.03354990938757469,0.01410953484267453,0.021247992552053813,0.018653530228249816,0.0006664886499002046,0.021801087338412833,0.007117885288202843,0.002146020487932501,0.00046494339851141305
46.83682550657169,16.847334532243686,0.007881685272436573,0.0031028927574937083,0.10602313281901254,0.03354990938757469,0.01410953484267453,0.021247992552053813,0.018653530228249816,0.0006664886499002046,0.021801087338412833,0.007117885288202843,0.002146020487932501,0.00046494339851141305
46.8368252861164,16.84732808603475,0.007881685272436573,0.0031028927574937083,0.10602313281901254,0.03354990938757469,0.01410953484267453,0.021247992552053813,0.018653530228249816,0.0006664886499002046,0.021801087338412833,0.007117885288202843,0.002146020487932501,0.00046494339851141305
46.836825244929365,16.847326881749495,0.00023318001850915099,0.0018011390658979353,4.599447477073808e-05,9.974199022240179e-05,0.0024089124595018823,0.02037820468277492,6.528535891263577e-05,0.00047581095813458026,0.0010048756524617146,0.0060546928000722155,5.208378012416488e-05,0.0003075629322630369
46.83682524492945,16.847326881749495,0.00023318001850915099,0.0018011390658979353,4.599447477073808e-05,9.974199022240179e-05,0.0024089124595018823,0.02037820468277492,6.528535891263577e-05,0.00047581095813458026,0.0010048756524617146,0.0060546928000722155,5.208378012416488e-05,0.0003075629322630369
46.836825244929685,16.847326881749495,0.00023318001850915099,0.0018011390658979353,4.599447477073808e-05,9.974199022240179e-05,0.0024089124595018823,0.02037820468277492,6.528535891263577e-05,0.00047581095813458026,0.0010048756524617146,0.0060546928000722155,5.208378012416488e-05,0.0003075629322630369
46.836825244929436,16.8473268817495,0.00023318001850915099,0.0018011390658979353,4.599447477073808e-05,9.974199022240179e-05,0.0024089124595018823,0.02037820468277492,6.528535891263577e-05,0.00047581095813458026,0.0010048756524617146,0.0060546928000722155,5.208378012416488e-05,0.0003075629322630369
46.83682524493012,16.84732688174943,0.00023318001850915099,0.0018011390658979353,4.599447477073808e-05,9.974199022240179e-05,0.0024089124595018823,0.02037820468277492,6.528535891263577e-05,0.00047581095813458026,0.0010048756524617146,0.0060546928000722155,5.208378012416488e-05,0.0003075629322630369
46.83682524492944,16.8473268817495,0.00023318001850915099,0.0018011390658979353,4.599447477073808e-05,9.974199022240179e-05,0.0024089124595018823,0.02037820468277492,6.528535891263577e-05,0.00047581095813458026,0.0010048756524617146,0.0060546928000722155,5.208378012416488e-05,0.0003075629322630369
46.83682524493159,16.84732688174934,0.00023318001850915099,0.0018011390658979353,4.599447477073808e-05,9.974199022240179e-05,0.0024089124595018823,0.02037820468277492,6.528535891263577e-05,0.00047581095813458026,0.0010048756524617146,0.0060546928000722155,5.208378012416488e-05,0.0003075629322630369
46.836825244932555,16.84732688174927,0.00023318001850915099,0.0018011390658979353,4.599447477073808e-05,9.974199022240179e-05,0.0024089124595018823,0.02037820468277492,6.528535891263577e-05,0.00047581095813458026,0.0010048756524617146,0.0060546928000722155,5.208378012416488e-05,0.0003075629322630369
46.83682524493013,16.84732688174944,0.00023318001850915099,0.0018011390658979353,4.599447477073808e-05,9.974199022240179e-05,0.0024089124595018823,0.02037820468277492,6.528535891263577e-05,0.00047581095813458026,0.0010048756524617146,0.0060546928000722155,5.208378012416488e-05,0.0003075629322630369
46.836825244929685,16.84732688174949,0.00023318001850915099,0.0018011390658979353,4.599447477073808e-05,9.974199022240179e-05,0.0024089124595018823,0.02037820468277492,6.528535891263577e-05,0.00047581095813458026,0.0010048756524617146,0.0060546928000722155,5.208378012416488e-05,0.0003075629322630369
46.83682524493154,16.84732688174929,0.00023318001850915099,0.0018011390658979353,4.599447477073808e-05,9.974199022240179e-05,0.0024089124595018823,0.02037820468277492,6.528535891263577e-05,0.00047581095813458026,0.0010048756524617146,0.0060546928000722155,5.208378012416488e-05,0.0003075629322630369
46.836825244930246,16.84732688174947,0.00023318001850915099,0.0018011390658979353,4.599447477073808e-05,9.974199022240179e-05,0.0024089124595018823,0.02037820468277492,6.528535891263577e-05,0.00047581095813458026,0.0010048756524617146,0.0060546928000722155,5.208378012416488e-05,0.0003075629322630369
46.83682524493017,16.8473268817494,0.00023318001850915099,0.0018011390658979353,4.599447477073808e-05,9.974199022240179e-05,0.0024089124595018823,0.02037820468277492,6.528535891263577e-05,0.00047581095813458026,0.0010048756524617146,0.0060546928000722155,5.208378012416488e-05,0.0003075629322630369
46.836825244929685,16.84732688174948,0.00023318001850915099,0.0018011390658979353,4.599447477073808e-05,9.974199022240179e-05,0.0024089124595018823,0.02037820468277492,6.528535891263577e-05,0.00047581095813458026,0.0010048756524617146,0.0060546928000722155,5.208378012416488e-05,0.0003075629322630369
46.836825244929386,16.847326881749503,0.00023318001850915099,0.0018011390658979353,4.599447477073808e-05,9.974199022240179e-05,0.0024089124595018823,0.02037820468277492,6.528535891263577e-05,0.00047581095813458026,0.0010048756524617146,0.0060546928000722155,5.208378012416488e-05,0.0003075629322630369
46.83682524493076,16.847326881749392,0.04271683769158086,0.02569802291292758,0.09286887106380477,0.08187591605207134,0.12973129728344004,0.20896255555579496,0.06835600193701723,0.08779863451858116,0.1787410197889222,0.26499108217982936,0.02060826299228511,0.0019857751410200606
46.83683759840291,16.84739092279786,0.04271683769158086,0.02569802291292758,0.09286887106380477,0.08187591605207134,0.12973129728344004,0.20896255555579496,0.06835600193701723,0.08779863451858116,0.1787410197889222,0.26499108217982936,0.02060826299228511,0.0019857751410200606
46.83684415222457,16.84753163666494,0.04271683769158086,0.02569802291292758,0.09286887106380477,0.08187591605207134,0.12973129728344004,0.20896255555579496,0.06835600193701723,0.08779863451858116,0.1787410197889222,0.26499108217982936,0.02060826299228511,0.0019857751410200606
46.836817945621675,16.847783638857276,0.04271683769158086,0.02569802291292758,0.09286887106380477,0.08187591605207134,0.12973129728344004,0.20896255555579496,0.06835600193701723,0.08779863451858116,0.1787410197889222,0.26499108217982936,0.02060826299228511,0.0019857751410200606
46.83683468719053,16.84786993528636,0.04271683769158086,0.02569802291292758,0.09286887106380477,0.08187591605207134,0.12973129728344004,0.20896255555579496,0.06835600193701723,0.08779863451858116,0.1787410197889222,0.26499108217982936,0.02060826299228511,0.0019857751410200606
46.83687031041504,16.847864653851577,0.049719773688247135,0.044255024776269705,0.16491561708158112,0.04673338526628007,0.048615991238793614,0.21737921270974003,0.01437724101673053,0.06613097003290061,0.18517947930559275,0.2727861108130374,0.007128241144669073,0.0019857751410200606
46.83689426822273,16.847859292306687,0.049719773688247135,0.044255024776269705,0.16491561708158112,0.04673338526628007,0.048615991238793614,0.21737921270974003,0.01437724101673053,0.06613097003290061,0.18517947930559275,0.2727861108130374,0.007128241144669073,0.0019857751410200606
46.8369517294641,16.847850088826167,0.049719773688247135,0.044255024776269705,0.16491561708158112,0.04673338526628007,0.048615991238793614,0.21737921270974003,0.01437724101673053,0.06613097003290061,0.18517947930559275,0.2727861108130374,0.007128241144669073,0.0019857751410200606
46.83700940099139,16.847848153578692,0.049719773688247135,0.044255024776269705,0.16491561708158112,0.04673338526628007,0.048615991238793614,0.21737921270974003,0.01437724101673053,0.06613097003290061,0.18517947930559275,0.2727861108130374,0.007128241144669073,0.0019857751410200606
46.837082249609594,16.847845873001294,0.049719773688247135,0.044255024776269705,0.16491561708158112,0.04673338526628007,0.048615991238793614,0.21737921270974003,0.01437724101673053,0.06613097003290061,0.18517947930559275,0.2727861108130374,0.007128241144669073,0.0019857751410200606
46.83715977679315,16.847839391886527,0.0012243801463091425,0.007133708822774607,0.2047286158946983,0.21361536550169188,0.0033906508857982133,0.014454942110542466,0.008178760711888586,0.01591286083272509,0.012066446205976515,0.01979025839711733,0.0015994391655791515,0.002263393822163906
46.837202820699765,16.847837545394402,0.0012243801463091425,0.007133708822774607,0.2047286158946983,0.21361536550169188,0.0033906508857982133,0.014454942110542466,0.008178760711888586,0.01591286083272509,0.012066446205976515,0.01979025839711733,0.0015994391655791515,0.002263393822163906
46.837250939759315,16.847838520643656,0.0012243801463091425,0.007133708822774607,0.2047286158946983,0.21361536550169188,0.0033906508857982133,0.014454942110542466,0.008178760711888586,0.01591286083272509,0.012066446205976515,0.01979025839711733,0.0015994391655791515,0.002263393822163906
46.83731598778964,16.847843905960026,0.0012243801463091425,0.007133708822774607,0.2047286158946983,0.21361536550169188,0.0033906508857982133,0.014454942110542466,0.008178760711888586,0.01591286083272509,0.012066446205976515,0.01979025839711733,0.0015994391655791515,0.002263393822163906
46.837358780076194,16.84784704608201,0.0012243801463091425,0.007133708822774607,0.2047286158946983,0.21361536550169188,0.0033906508857982133,0.014454942110542466,0.008178760711888586,0.01591286083272509,0.012066446205976515,0.01979025839711733,0.0015994391655791515,0.002263393822163906
46.837397672408244,16.847844774416075,0.006291297270419172,0.006254040765308569,0.046478890528454705,0.01590350080468315,0.018463751468515567,0.015280066050715153,0.005310931521591284,0.007478482148146072,0.01253671627204338,0.013005407743694526,0.0020337076763339134,0.0006559610209700032
46.83743576283583,16.84783928964759,0.006291297270419172,0.006254040765308569,0.046478890528454705,0.01590350080468315,0.018463751468515567,0.015280066050715153,0.005310931521591284,0.007478482148146072,0.01253671627204338,0.013005407743694526,0.0020337076763339134,0.0006559610209700032
46.837460382654,16.847837549633056,0.006291297270419172,0.006254040765308569,0.046478890528454705,0.01590350080468315,0.018463751468515567,0.015280066050715153,0.005310931521591284,0.007478482148146072,0.01253671627204338,0.013005407743694526,0.0020337076763339134,0.0006559610209700032
46.8374924077063,16.84783740750041,0.006291297270419172,0.006254040765308569,0.046478890528454705,0.01590350080468315,0.018463751468515567,0.015280066050715153,0.005310931521591284,0.007478482148146072,0.01253671627204338,0.013005407743694526,0.0020337076763339134,0.0006559610209700032
46.83752853876144,16.84783902611694,0.006291297270419172,0.006254040765308569,0.046478890528454705,0.01590350080468315,0.018463751468515567,0.015280066050715153,0.005310931521591284,0.007478482148146072,0.01253671627204338,0.013005407743694526,0.0020337076763339134,0.0006559610209700032
46.8375509692948,16.84783886637339,0.006291297270419172,0.006254040765308569,0.046478890528454705,0.01590350080468315,0.018463751468515567,0.015280066050715153,0.005310931521591284,0.007478482148146072,0.01253671627204338,0.013005407743694526,0.0020337076763339134,0.0006559610209700032
46.83757479093627,16.847837674676764,0.006291297270419172,0.006254040765308569,0.046478890528454705,0.01590350080468315,0.018463751468515567,0.015280066050715153,0.005310931521591284,0.007478482148146072,0.01253671627204338,0.013005407743694526,0.0020337076763339134,0.0006559610209700032
46.83760055403367,16.847835180731305,0.006291297270419172,0.006254040765308569,0.046478890528454705,0.01590350080468315,0.018463751468515567,0.015280066050715153,0.005310931521591284,0.007478482148146072,0.01253671627204338,0.013005407743694526,0.0020337076763339134,0.0006559610209700032
46.83762689480006,16.847831567152898,0.006291297270419172,0.006254040765308569,0.046478890528454705,0.01590350080468315,0.018463751468515567,0.015280066050715153,0.005310931521591284,0.007478482148146072,0.01253671627204338,0.013005407743694526,0.0020337076763339134,0.0006559610209700032
46.837652549209835,16.847828770621398,0.006291297270419172,0.006254040765308569,0.046478890528454705,0.01590350080468315,0.018463751468515567,0.015280066050715153,0.005310931521591284,0.007478482148146072,0.01253671627204338,0.013005407743694526,0.0020337076763339134,0.0006559610209700032
46.83767783556394,16.84782719556606,0.006291297270419172,0.006254040765308569,0.046478890528454705,0.01590350080468315,0.018463751468515567,0.015280066050715153,0.005310931521591284,0.007478482148146072,0.01253671627204338,0.013005407743694526,0.0020337076763339134,0.0006559610209700032
46.83770546288461,16.847826870824218,0.006291297270419172,0.006254040765308569,0.046478890528454705,0.01590350080468315,0.018463751468515567,0.015280066050715153,0.005310931521591284,0.007478482148146072,0.01253671627204338,0.013005407743694526,0.0020337076763339134,0.0006559610209700032
46.83773460760768,16.847828078498402,0.006291297270419172,0.006254040765308569,0.046478890528454705,0.01590350080468315,0.018463751468515567,0.015280066050715153,0.005310931521591284,0.007478482148146072,0.01253671627204338,0.013005407743694526,0.0020337076763339134,0.0006559610209700032
46.837754994646886,16.84782903693631,0.006291297270419172,0.006254040765308569,0.046478890528454705,0.01590350080468315,0.018463751468515567,0.015280066050715153,0.005310931521591284,0.007478482148146072,0.01253671627204338,0.013005407743694526,0.0020337076763339134,0.0006559610209700032
46.83780204358863,16.847830241480906,0.006291297270419172,0.006254040765308569,0.046478890528454705,0.01590350080468315,0.018463751468515567,0.015280066050715153,0.005310931521591284,0.007478482148146072,0.01253671627204338,0.013005407743694526,0.0020337076763339134,0.0006559610209700032
46.83782324653771,16.84783025876005,0.006291297270419172,0.006254040765308569,0.046478890528454705,0.01590350080468315,0.018463751468515567,0.015280066050715153,0.005310931521591284,0.007478482148146072,0.01253671627204338,0.013005407743694526,0.0020337076763339134,0.0006559610209700032
46.837851482040406,16.8478294777191,0.006291297270419172,0.006254040765308569,0.046478890528454705,0.01590350080468315,0.018463751468515567,0.015280066050715153,0.005310931521591284,0.007478482148146072,0.01253671627204338,0.013005407743694526,0.0020337076763339134,0.0006559610209700032
46.83787756817077,16.84782755326554,0.006291297270419172,0.006254040765308569,0.046478890528454705,0.01590350080468315,0.018463751468515567,0.015280066050715153,0.005310931521591284,0.007478482148146072,0.01253671627204338,0.013005407743694526,0.0020337076763339134,0.0006559610209700032
46.83790516910106,16.84782439831387,0.006291297270419172,0.006254040765308569,0.046478890528454705,0.01590350080468315,0.018463751468515567,0.015280066050715153,0.005310931521591284,0.007478482148146072,0.01253671627204338,0.013005407743694526,0.0020337076763339134,0.0006559610209700032
46.837930157403996,16.84782063358188,0.006291297270419172,0.006254040765308569,0.046478890528454705,0.01590350080468315,0.018463751468515567,0.015280066050715153,0.005310931521591284,0.007478482148146072,0.01253671627204338,0.013005407743694526,0.0020337076763339134,0.0006559610209700032
46.83795936776737,16.84781604927701,0.006291297270419172,0.006254040765308569,0.046478890528454705,0.01590350080468315,0.018463751468515567,0.015280066050715153,0.005310931521591284,0.007478482148146072,0.01253671627204338,0.013005407743694526,0.0020337076763339134,0.0006559610209700032
46.837989314984746,16.847812083047227,0.006291297270419172,0.006254040765308569,0.046478890528454705,0.01590350080468315,0.018463751468515567,0.015280066050715153,0.005310931521591284,0.007478482148146072,0.01253671627204338,0.013005407743694526,0.0020337076763339134,0.0006559610209700032
46.838011351837615,16.847809690669607,0.006291297270419172,0.006254040765308569,0.046478890528454705,0.01590350080468315,0.018463751468515567,0.015280066050715153,0.005310931521591284,0.007478482148146072,0.01253671627204338,0.013005407743694526,0.0020337076763339134,0.0006559610209700032
46.8380381670021,16.847807398074888,0.006291297270419172,0.006254040765308569,0.046478890528454705,0.01590350080468315,0.018463751468515567,0.015280066050715153,0.005310931521591284,0.007478482148146072,0.01253671627204338,0.013005407743694526,0.0020337076763339134,0.0006559610209700032
46.8380619363884,16.847805752772175,0.006291297270419172,0.006254040765308569,0.046478890528454705,0.01590350080468315,0.018463751468515567,0.015280066050715153,0.005310931521591284,0.007478482148146072,0.01253671627204338,0.013005407743694526,0.0020337076763339134,0.0006559610209700032
46.838089125559485,16.847804031861152,0.006291297270419172,0.006254040765308569,0.046478890528454705,0.01590350080468315,0.018463751468515567,0.015280066050715153,0.005310931521591284,0.007478482148146072,0.01253671627204338,0.013005407743694526,0.0020337076763339134,0.0006559610209700032
46.838118209909936,16.847802407312813,0.006291297270419172,0.006254040765308569,0.046478890528454705,0.01590350080468315,0.018463751468515567,0.015280066050715153,0.005310931521591284,0.007478482148146072,0.01253671627204338,0.013005407743694526,0.0020337076763339134,0.0006559610209700032
46.83815740288949,16.847800363249625,0.006291297270419172,0.006254040765308569,0.046478890528454705,0.01590350080468315,0.018463751468515567,0.015280066050715153,0.005310931521591284,0.007478482148146072,0.01253671627204338,0.013005407743694526,0.0020337076763339134,0.0006559610209700032
46.83819108876341,16.847797738757375,0.006291297270419172,0.006254040765308569,0.046478890528454705,0.01590350080468315,0.018463751468515567,0.015280066050715153,0.005310931521591284,0.007478482148146072,0.01253671627204338,0.013005407743694526,0.0020337076763339134,0.0006559610209700032
46.83822691237419,16.847793746437908,0.006291297270419172,0.006254040765308569,0.046478890528454705,0.01590350080468315,0.018463751468515567,0.015280066050715153,0.005310931521591284,0.007478482148146072,0.01253671627204338,0.013005407743694526,0.0020337076763339134,0.0006559610209700032
46.83824523865247,16.847791297486488,0.006990130903571503,0.009223391815938106,0.15039199731617842,0.09606269459911128,0.0035024341424904543,0.013285498720668686,0.002664733630984878,0.003732572835588219,0.0099410092452996,0.01583015432781793,0.01051748485363556,0.004856849606286852
46.83828965165827,16.8477853324445,0.006990130903571503,0.009223391815938106,0.15039199731617842,0.09606269459911128,0.0035024341424904543,0.013285498720668686,0.002664733630984878,0.003732572835588219,0.0099410092452996,0.01583015432781793,0.01051748485363556,0.004856849606286852
46.83832004547606,16.84778124443713,0.006990130903571503,0.009223391815938106,0.15039199731617842,0.09606269459911128,0.0035024341424904543,0.013285498720668686,0.002664733630984878,0.003732572835588219,0.0099410092452996,0.01583015432781793,0.01051748485363556,0.004856849606286852
46.8383380177644,16.84777888190158,0.006990130903571503,0.009223391815938106,0.15039199731617842,0.09606269459911128,0.0035024341424904543,0.013285498720668686,0.002664733630984878,0.003732572835588219,0.0099410092452996,0.01583015432781793,0.01051748485363556,0.004856849606286852
46.83840031009598,16.847771802542827,0.006990130903571503,0.009223391815938106,0.15039199731617842,0.09606269459911128,0.0035024341424904543,0.013285498720668686,0.002664733630984878,0.003732572835588219,0.0099410092452996,0.01583015432781793,0.01051748485363556,0.004856849606286852
46.83846595706414,16.847769134046143,0.007092798379353135,0.008027751578473172,0.018739193692405797,0.01140521308241246,0.024756248558202618,0.022808299406986206,0.02972504361221477,0.011074956663423226,0.017171611099811947,0.01576074728425625,0.003015080460813732,0.0006385118465172999
46.83852541587068,16.847766897582627,0.007092798379353135,0.008027751578473172,0.018739193692405797,0.01140521308241246,0.024756248558202618,0.022808299406986206,0.02972504361221477,0.011074956663423226,0.017171611099811947,0.01576074728425625,0.003015080460813732,0.0006385118465172999
46.838568330897886,16.847763773699896,0.007092798379353135,0.008027751578473172,0.018739193692405797,0.01140521308241246,0.024756248558202618,0.022808299406986206,0.02972504361221477,0.011074956663423226,0.017171611099811947,0.01576074728425625,0.003015080460813732,0.0006385118465172999
46.83861225389539,16.84776110339507,0.007092798379353135,0.008027751578473172,0.018739193692405797,0.01140521308241246,0.024756248558202618,0.022808299406986206,0.02972504361221477,0.011074956663423226,0.017171611099811947,0.01576074728425625,0.003015080460813732,0.0006385118465172999
46.83863830022566,16.847760430802243,0.007092798379353135,0.008027751578473172,0.018739193692405797,0.01140521308241246,0.024756248558202618,0.022808299406986206,0.02972504361221477,0.011074956663423226,0.017171611099811947,0.01576074728425625,0.003015080460813732,0.0006385118465172999
46.83867071617142,16.84776005742609,0.007092798379353135,0.008027751578473172,0.018739193692405797,0.01140521308241246,0.024756248558202618,0.022808299406986206,0.02972504361221477,0.011074956663423226,0.017171611099811947,0.01576074728425625,0.003015080460813732,0.0006385118465172999
46.83872731673088,16.847759414440677,0.007092798379353135,0.008027751578473172,0.018739193692405797,0.01140521308241246,0.024756248558202618,0.022808299406986206,0.02972504361221477,0.011074956663423226,0.017171611099811947,0.01576074728425625,0.003015080460813732,0.0006385118465172999
46.83875858718847,16.847758351728334,0.007092798379353135,0.008027751578473172,0.018739193692405797,0.01140521308241246,0.024756248558202618,0.022808299406986206,0.02972504361221477,0.011074956663423226,0.017171611099811947,0.01576074728425625,0.003015080460813732,0.0006385118465172999
46.83879258235822,16.847756226761256,0.007092798379353135,0.008027751578473172,0.018739193692405797,0.01140521308241246,0.024756248558202618,0.022808299406986206,0.02972504361221477,0.011074956663423226,0.017171611099811947,0.01576074728425625,0.003015080460813732,0.0006385118465172999
46.83882025783627,16.84775410663251,0.007092798379353135,0.008027751578473172,0.018739193692405797,0.01140521308241246,0.024756248558202618,0.022808299406986206,0.02972504361221477,0.011074956663423226,0.017171611099811947,0.01576074728425625,0.003015080460813732,0.0006385118465172999
46.83885141936195,16.847752379792723,0.007092798379353135,0.008027751578473172,0.018739193692405797,0.01140521308241246,0.024756248558202618,0.022808299406986206,0.02972504361221477,0.011074956663423226,0.017171611099811947,0.01576074728425625,0.003015080460813732,0.0006385118465172999
46.838878768909744,16.847751430588147,0.007092798379353135,0.008027751578473172,0.018739193692405797,0.01140521308241246,0.024756248558202618,0.022808299406986206,0.02972504361221477,0.011074956663423226,0.017171611099811947,0.01576074728425625,0.003015080460813732,0.0006385118465172999
46.8389100302253,16.847751022041468,0.007092798379353135,0.008027751578473172,0.018739193692405797,0.01140521308241246,0.024756248558202618,0.022808299406986206,0.02972504361221477,0.011074956663423226,0.017171611099811947,0.01576074728425625,0.003015080460813732,0.0006385118465172999
46.838938749102724,16.847751428108662,0.007092798379353135,0.008027751578473172,0.018739193692405797,0.01140521308241246,0.024756248558202618,0.022808299406986206,0.02972504361221477,0.011074956663423226,0.017171611099811947,0.01576074728425625,0.003015080460813732,0.0006385118465172999
46.83896449556386,16.84775240521527,0.007092798379353135,0.008027751578473172,0.018739193692405797,0.01140521308241246,0.024756248558202618,0.022808299406986206,0.02972504361221477,0.011074956663423226,0.017171611099811947,0.01576074728425625,0.003015080460813732,0.0006385118465172999
46.83899127777669,16.84775397129527,0.007092798379353135,0.008027751578473172,0.018739193692405797,0.01140521308241246,0.024756248558202618,0.022808299406986206,0.02972504361221477,0.011074956663423226,0.017171611099811947,0.01576074728425625,0.003015080460813732,0.0006385118465172999
46.8390142614813,16.847755171903678,0.007092798379353135,0.008027751578473172,0.018739193692405797,0.01140521308241246,0.024756248558202618,0.022808299406986206,0.02972504361221477,0.011074956663423226,0.017171611099811947,0.01576074728425625,0.003015080460813732,0.0006385118465172999
46.839045578935306,16.847756083264745,0.007092798379353135,0.008027751578473172,0.018739193692405797,0.01140521308241246,0.024756248558202618,0.022808299406986206,0.02972504361221477,0.011074956663423226,0.017171611099811947,0.01576074728425625,0.003015080460813732,0.0006385118465172999
46.8390739325888,16.84775615864698,0.007092798379353135,0.008027751578473172,0.018739193692405797,0.01140521308241246,0.024756248558202618,0.022808299406986206,0.02972504361221477,0.011074956663423226,0.017171611099811947,0.01576074728425625,0.003015080460813732,0.0006385118465172999
46.83909357404265,16.847755818061078,0.007092798379353135,0.008027751578473172,0.018739193692405797,0.01140521308241246,0.024756248558202618,0.022808299406986206,0.02972504361221477,0.011074956663423226,0.017171611099811947,0.01576074728425625,0.003015080460813732,0.0006385118465172999
46.83913236745136,16.847755459689353,0.007092798379353135,0.008027751578473172,0.018739193692405797,0.01140521308241246,0.024756248558202618,0.022808299406986206,0.02972504361221477,0.011074956663423226,0.017171611099811947,0.01576074728425625,0.003015080460813732,0.0006385118465172999
46.83915819854566,16.84775551470987,0.007092798379353135,0.008027751578473172,0.018739193692405797,0.01140521308241246,0.024756248558202618,0.022808299406986206,0.02972504361221477,0.011074956663423226,0.017171611099811947,0.01576074728425625,0.003015080460813732,0.0006385118465172999
46.83918471595481,16.84775581397433,0.007092798379353135,0.008027751578473172,0.018739193692405797,0.01140521308241246,0.024756248558202618,0.022808299406986206,0.02972504361221477,0.011074956663423226,0.017171611099811947,0.01576074728425625,0.003015080460813732,0.0006385118465172999
46.8392132446902,16.847756193308438,0.007092798379353135,0.008027751578473172,0.018739193692405797,0.01140521308241246,0.024756248558202618,0.022808299406986206,0.02972504361221477,0.011074956663423226,0.017171611099811947,0.01576074728425625,0.003015080460813732,0.0006385118465172999
46.839236033252895,16.847756434307126,0.007092798379353135,0.008027751578473172,0.018739193692405797,0.01140521308241246,0.024756248558202618,0.022808299406986206,0.02972504361221477,0.011074956663423226,0.017171611099811947,0.01576074728425625,0.003015080460813732,0.0006385118465172999
46.83926220125404,16.847756648890517,0.007092798379353135,0.008027751578473172,0.018739193692405797,0.01140521308241246,0.024756248558202618,0.022808299406986206,0.02972504361221477,0.011074956663423226,0.017171611099811947,0.01576074728425625,0.003015080460813732,0.0006385118465172999
46.839286851243344,16.84775679418094,0.007092798379353135,0.008027751578473172,0.018739193692405797,0.01140521308241246,0.024756248558202618,0.022808299406986206,0.02972504361221477,0.011074956663423226,0.017171611099811947,0.01576074728425625,0.003015080460813732,0.0006385118465172999
46.83931753480696,16.84775684340736,0.007092798379353135,0.008027751578473172,0.018739193692405797,0.01140521308241246,0.024756248558202618,0.022808299406986206,0.02972504361221477,0.011074956663423226,0.017171611099811947,0.01576074728425625,0.003015080460813732,0.0006385118465172999
46.8393453733443,16.84775671267362,0.007092798379353135,0.008027751578473172,0.018739193692405797,0.01140521308241246,0.024756248558202618,0.022808299406986206,0.02972504361221477,0.011074956663423226,0.017171611099811947,0.01576074728425625,0.003015080460813732,0.0006385118465172999
46.83937161167143,16.84775642508129,0.007092798379353135,0.008027751578473172,0.018739193692405797,0.01140521308241246,0.024756248558202618,0.022808299406986206,0.02972504361221477,0.011074956663423226,0.017171611099811947,0.01576074728425625,0.003015080460813732,0.0006385118465172999
46.83939789663878,16.847755966196686,0.007092798379353135,0.008027751578473172,0.018739193692405797,0.01140521308241246,0.024756248558202618,0.022808299406986206,0.02972504361221477,0.011074956663423226,0.017171611099811947,0.01576074728425625,0.003015080460813732,0.0006385118465172999
46.83942241084238,16.84775536455133,0.007092798379353135,0.008027751578473172,0.018739193692405797,0.01140521308241246,0.024756248558202618,0.022808299406986206,0.02972504361221477,0.011074956663423226,0.017171611099811947,0.01576074728425625,0.003015080460813732,0.0006385118465172999
46.83945492230348,16.84775431637749,0.007092798379353135,0.008027751578473172,0.018739193692405797,0.01140521308241246,0.024756248558202618,0.022808299406986206,0.02972504361221477,0.011074956663423226,0.017171611099811947,0.01576074728425625,0.003015080460813732,0.0006385118465172999
46.83947593310326,16.84775349913832,0.007092798379353135,0.008027751578473172,0.018739193692405797,0.01140521308241246,0.024756248558202618,0.022808299406986206,0.02972504361221477,0.011074956663423226,0.017171611099811947,0.01576074728425625,0.003015080460813732,0.0006385118465172999
46.83950647070208,16.84775211554105,0.007092798379353135,0.008027751578473172,0.018739193692405797,0.01140521308241246,0.024756248558202618,0.022808299406986206,0.02972504361221477,0.011074956663423226,0.017171611099811947,0.01576074728425625,0.003015080460813732,0.0006385118465172999
46.83953181014286,16.847750885252083,0.007092798379353135,0.008027751578473172,0.018739193692405797,0.01140521308241246,0.024756248558202618,0.022808299406986206,0.02972504361221477,0.011074956663423226,0.017171611099811947,0.01576074728425625,0.003015080460813732,0.0006385118465172999
46.839556976806065,16.84774961967269,0.007092798379353135,0.008027751578473172,0.018739193692405797,0.01140521308241246,0.024756248558202618,0.022808299406986206,0.02972504361221477,0.011074956663423226,0.017171611099811947,0.01576074728425625,0.003015080460813732,0.0006385118465172999
46.83958136340637,16.847748352743675,0.007092798379353135,0.008027751578473172,0.018739193692405797,0.01140521308241246,0.024756248558202618,0.022808299406986206,0.02972504361221477,0.011074956663423226,0.017171611099811947,0.01576074728425625,0.003015080460813732,0.0006385118465172999
46.83960620606537,16.847747021957357,0.007092798379353135,0.008027751578473172,0.018739193692405797,0.01140521308241246,0.024756248558202618,0.022808299406986206,0.02972504361221477,0.011074956663423226,0.017171611099811947,0.01576074728425625,0.003015080460813732,0.0006385118465172999
46.839634834216774,16.84774548305066,0.007092798379353135,0.008027751578473172,0.018739193692405797,0.01140521308241246,0.024756248558202618,0.022808299406986206,0.02972504361221477,0.011074956663423226,0.017171611099811947,0.01576074728425625,0.003015080460813732,0.0006385118465172999
46.83967607943471,16.8477433471787,0.007092798379353135,0.008027751578473172,0.018739193692405797,0.01140521308241246,0.024756248558202618,0.022808299406986206,0.02972504361221477,0.011074956663423226,0.017171611099811947,0.01576074728425625,0.003015080460813732,0.0006385118465172999
46.83968609590337,16.84774285388389,0.007092798379353135,0.008027751578473172,0.018739193692405797,0.01140521308241246,0.024756248558202618,0.022808299406986206,0.02972504361221477,0.011074956663423226,0.017171611099811947,0.01576074728425625,0.003015080460813732,0.0006385118465172999
46.839713241231706,16.84774152861366,0.007092798379353135,0.008027751578473172,0.018739193692405797,0.01140521308241246,0.024756248558202618,0.022808299406986206,0.02972504361221477,0.011074956663423226,0.017171611099811947,0.01576074728425625,0.003015080460813732,0.0006385118465172999
46.839753683378085,16.84773936840887,0.007092798379353135,0.008027751578473172,0.018739193692405797,0.01140521308241246,0.024756248558202618,0.022808299406986206,0.02972504361221477,0.011074956663423226,0.017171611099811947,0.01576074728425625,0.003015080460813732,0.0006385118465172999
46.839772416579606,16.847738049741633,0.007092798379353135,0.008027751578473172,0.018739193692405797,0.01140521308241246,0.024756248558202618,0.022808299406986206,0.02972504361221477,0.011074956663423226,0.017171611099811947,0.01576074728425625,0.003015080460813732,0.0006385118465172999
46.83979760351376,16.84773605061441,0.007092798379353135,0.008027751578473172,0.018739193692405797,0.01140521308241246,0.024756248558202618,0.022808299406986206,0.02972504361221477,0.011074956663423226,0.017171611099811947,0.01576074728425625,0.003015080460813732,0.0006385118465172999
46.839822483525865,16.84773375734123,0.007092798379353135,0.008027751578473172,0.018739193692405797,0.01140521308241246,0.024756248558202618,0.022808299406986206,0.02972504361221477,0.011074956663423226,0.017171611099811947,0.01576074728425625,0.003015080460813732,0.0006385118465172999
46.83985308290506,16.847730714199873,0.007092798379353135,0.008027751578473172,0.018739193692405797,0.01140521308241246,0.024756248558202618,0.022808299406986206,0.02972504361221477,0.011074956663423226,0.017171611099811947,0.01576074728425625,0.003015080460813732,0.0006385118465172999
46.83988881485419,16.847727364587374,0.007092798379353135,0.008027751578473172,0.018739193692405797,0.01140521308241246,0.024756248558202618,0.022808299406986206,0.02972504361221477,0.011074956663423226,0.017171611099811947,0.01576074728425625,0.003015080460813732,0.0006385118465172999
46.83991525126614,16.847725050780127,0.007092798379353135,0.008027751578473172,0.018739193692405797,0.01140521308241246,0.024756248558202618,0.022808299406986206,0.02972504361221477,0.011074956663423226,0.017171611099811947,0.01576074728425625,0.003015080460813732,0.0006385118465172999
46.839940124578035,16.847723033265826,0.007092798379353135,0.008027751578473172,0.018739193692405797,0.01140521308241246,0.024756248558202618,0.022808299406986206,0.02972504361221477,0.011074956663423226,0.017171611099811947,0.01576074728425625,0.003015080460813732,0.0006385118465172999
46.839977190687875,16.847720534395204,0.007092798379353135,0.008027751578473172,0.018739193692405797,0.01140521308241246,0.024756248558202618,0.022808299406986206,0.02972504361221477,0.011074956663423226,0.017171611099811947,0.01576074728425625,0.003015080460813732,0.0006385118465172999
46.840023219835864,16.84771837031934,0.007092798379353135,0.008027751578473172,0.018739193692405797,0.01140521308241246,0.024756248558202618,0.022808299406986206,0.02972504361221477,0.011074956663423226,0.017171611099811947,0.01576074728425625,0.003015080460813732,0.0006385118465172999
46.84004593862137,16.847717773497624,0.007092798379353135,0.008027751578473172,0.018739193692405797,0.01140521308241246,0.024756248558202618,0.022808299406986206,0.02972504361221477,0.011074956663423226,0.017171611099811947,0.01576074728425625,0.003015080460813732,0.0006385118465172999
46.84007734126607,16.847717387076823,0.007092798379353135,0.008027751578473172,0.018739193692405797,0.01140521308241246,0.024756248558202618,0.022808299406986206,0.02972504361221477,0.011074956663423226,0.017171611099811947,0.01576074728425625,0.003015080460813732,0.0006385118465172999
46.840108204290075,16.847717572493828,0.007092798379353135,0.008027751578473172,0.018739193692405797,0.01140521308241246,0.024756248558202618,0.022808299406986206,0.02972504361221477,0.011074956663423226,0.017171611099811947,0.01576074728425625,0.003015080460813732,0.0006385118465172999
46.8401609186566,16.847717707794903,0.007092798379353135,0.008027751578473172,0.018739193692405797,0.01140521308241246,0.024756248558202618,0.022808299406986206,0.02972504361221477,0.011074956663423226,0.017171611099811947,0.01576074728425625,0.003015080460813732,0.0006385118465172999
46.840201250256875,16.847717208614014,0.007092798379353135,0.008027751578473172,0.018739193692405797,0.01140521308241246,0.024756248558202618,0.022808299406986206,0.02972504361221477,0.011074956663423226,0.017171611099811947,0.01576074728425625,0.003015080460813732,0.0006385118465172999
46.84021958789692,16.847716931155922,0.007092798379353135,0.008027751578473172,0.018739193692405797,0.01140521308241246,0.024756248558202618,0.022808299406986206,0.02972504361221477,0.011074956663423226,0.017171611099811947,0.01576074728425625,0.003015080460813732,0.0006385118465172999
46.84025907259722,16.847716448020506,0.007092798379353135,0.008027751578473172,0.018739193692405797,0.01140521308241246,0.024756248558202618,0.022808299406986206,0.02972504361221477,0.011074956663423226,0.017171611099811947,0.01576074728425625,0.003015080460813732,0.0006385118465172999
46.840282423133765,16.8477162235361,0.025012497755166778,0.011355145941094422,0.006203307555584136,0.010908615313633397,0.0639654830723811,0.042547636462057926,0.0325333933329927,0.051406568469912636,0.05494747514720428,0.03657814799081892,0.0002702890148456843,0.0005812343209960408
46.840312627970874,16.847716038174497,0.025012497755166778,0.011355145941094422,0.006203307555584136,0.010908615313633397,0.0639654830723811,0.042547636462057926,0.0325333933329927,0.051406568469912636,0.05494747514720428,0.03657814799081892,0.0002702890148456843,0.0005812343209960408
46.84034501354057,16.847716004321498,0.025012497755166778,0.011355145941094422,0.006203307555584136,0.010908615313633397,0.0639654830723811,0.042547636462057926,0.0325333933329927,0.051406568469912636,0.05494747514720428,0.03657814799081892,0.0002702890148456843,0.0005812343209960408
46.840375451065945,16.847716136497095,0.025012497755166778,0.011355145941094422,0.006203307555584136,0.010908615313633397,0.0639654830723811,0.042547636462057926,0.0325333933329927,0.051406568469912636,0.05494747514720428,0.03657814799081892,0.0002702890148456843,0.0005812343209960408
46.8404103498153,16.84771653721089,0.025012497755166778,0.011355145941094422,0.006203307555584136,0.010908615313633397,0.0639654830723811,0.042547636462057926,0.0325333933329927,0.051406568469912636,0.05494747514720428,0.03657814799081892,0.0002702890148456843,0.0005812343209960408
46.84042711283788,16.84771681599421,0.025012497755166778,0.011355145941094422,0.006203307555584136,0.010908615313633397,0.0639654830723811,0.042547636462057926,0.0325333933329927,0.051406568469912636,0.05494747514720428,0.03657814799081892,0.0002702890148456843,0.0005812343209960408
46.840465845031524,16.847717905397186,0.025012497755166778,0.011355145941094422,0.006203307555584136,0.010908615313633397,0.0639654830723811,0.042547636462057926,0.0325333933329927,0.051406568469912636,0.05494747514720428,0.03657814799081892,0.0002702890148456843,0.0005812343209960408
46.84050236980131,16.847722401939865,0.025012497755166778,0.011355145941094422,0.006203307555584136,0.010908615313633397,0.0639654830723811,0.042547636462057926,0.0325333933329927,0.051406568469912636,0.05494747514720428,0.03657814799081892,0.0002702890148456843,0.0005812343209960408
46.84053778058591,16.84773093153964,0.025012497755166778,0.011355145941094422,0.006203307555584136,0.010908615313633397,0.0639654830723811,0.042547636462057926,0.0325333933329927,0.051406568469912636,0.05494747514720428,0.03657814799081892,0.0002702890148456843,0.0005812343209960408
46.840577340095564,16.84774194539233,0.025012497755166778,0.011355145941094422,0.006203307555584136,0.010908615313633397,0.0639654830723811,0.042547636462057926,0.0325333933329927,0.051406568469912636,0.05494747514720428,0.03657814799081892,0.0002702890148456843,0.0005812343209960408
46.84060165541401,16.84774593830614,0.0074742224267688616,0.006619745666655839,0.00829074434495297,0.007436652659114101,0.019614815432180424,0.020705400691801667,0.01602448945260303,0.013020189273233684,0.00975324527885412,0.013264136680061753,0.0002324876788421695,0.00042643617877512874
46.840624181514684,16.847747753783413,0.0074742224267688616,0.006619745666655839,0.00829074434495297,0.007436652659114101,0.019614815432180424,0.020705400691801667,0.01602448945260303,0.013020189273233684,0.00975324527885412,0.013264136680061753,0.0002324876788421695,0.00042643617877512874
46.84066242803212,16.847747064789353,0.0074742224267688616,0.006619745666655839,0.00829074434495297,0.007436652659114101,0.019614815432180424,0.020705400691801667,0.01602448945260303,0.013020189273233684,0.00975324527885412,0.013264136680061753,0.0002324876788421695,0.00042643617877512874
46.84068242603143,16.847746361245044,0.0074742224267688616,0.006619745666655839,0.00829074434495297,0.007436652659114101,0.019614815432180424,0.020705400691801667,0.01602448945260303,0.013020189273233684,0.00975324527885412,0.013264136680061753,0.0002324876788421695,0.00042643617877512874
46.84071849733496,16.84774502545154,0.0074742224267688616,0.006619745666655839,0.00829074434495297,0.007436652659114101,0.019614815432180424,0.020705400691801667,0.01602448945260303,0.013020189273233684,0.00975324527885412,0.013264136680061753,0.0002324876788421695,0.00042643617877512874
46.84075623221188,16.847743550964836,0.0074742224267688616,0.006619745666655839,0.00829074434495297,0.007436652659114101,0.019614815432180424,0.020705400691801667,0.01602448945260303,0.013020189273233684,0.00975324527885412,0.013264136680061753,0.0002324876788421695,0.00042643617877512874
46.840778693408275,16.847742663534024,0.0074742224267688616,0.006619745666655839,0.00829074434495297,0.007436652659114101,0.019614815432180424,0.020705400691801667,0.01602448945260303,0.013020189273233684,0.00975324527885412,0.013264136680061753,0.0002324876788421695,0.00042643617877512874
46.84079626704153,16.84774196920826,0.0074742224267688616,0.006619745666655839,0.00829074434495297,0.007436652659114101,0.019614815432180424,0.020705400691801667,0.01602448945260303,0.013020189273233684,0.00975324527885412,0.013264136680061753,0.0002324876788421695,0.00042643617877512874
46.84084148254111,16.847740182764923,0.0074742224267688616,0.006619745666655839,0.00829074434495297,0.007436652659114101,0.019614815432180424,0.020705400691801667,0.01602448945260303,0.013020189273233684,0.00975324527885412,0.013264136680061753,0.0002324876788421695,0.00042643617877512874
46.840874701832945,16.847738882441487,0.0074742224267688616,0.006619745666655839,0.00829074434495297,0.007436652659114101,0.019614815432180424,0.020705400691801667,0.01602448945260303,0.013020189273233684,0.00975324527885412,0.013264136680061753,0.0002324876788421695,0.00042643617877512874
46.84090260921816,16.847737814973254,0.0074742224267688616,0.006619745666655839,0.00829074434495297,0.007436652659114101,0.019614815432180424,0.020705400691801667,0.01602448945260303,0.013020189273233684,0.00975324527885412,0.013264136680061753,0.0002324876788421695,0.00042643617877512874
46.8409280539732,16.847736861853985,0.0074742224267688616,0.006619745666655839,0.00829074434495297,0.007436652659114101,0.019614815432180424,0.020705400691801667,0.01602448945260303,0.013020189273233684,0.00975324527885412,0.013264136680061753,0.0002324876788421695,0.00042643617877512874
46.84095420050825,16.847735902732335,0.0074742224267688616,0.006619745666655839,0.00829074434495297,0.007436652659114101,0.019614815432180424,0.020705400691801667,0.01602448945260303,0.013020189273233684,0.00975324527885412,0.013264136680061753,0.0002324876788421695,0.00042643617877512874
46.84098126866429,16.847734879469762,0.0074742224267688616,0.006619745666655839,0.00829074434495297,0.007436652659114101,0.019614815432180424,0.020705400691801667,0.01602448945260303,0.013020189273233684,0.00975324527885412,0.013264136680061753,0.0002324876788421695,0.00042643617877512874
46.841008902967516,16.847733740411886,0.0074742224267688616,0.006619745666655839,0.00829074434495297,0.007436652659114101,0.019614815432180424,0.020705400691801667,0.01602448945260303,0.013020189273233684,0.00975324527885412,0.013264136680061753,0.0002324876788421695,0.00042643617877512874
46.84103335900478,16.847732649804986,0.0074742224267688616,0.006619745666655839,0.00829074434495297,0.007436652659114101,0.019614815432180424,0.020705400691801667,0.01602448945260303,0.013020189273233684,0.00975324527885412,0.013264136680061753,0.0002324876788421695,0.00042643617877512874
46.84106431952306,16.847731154958844,0.0074742224267688616,0.006619745666655839,0.00829074434495297,0.007436652659114101,0.019614815432180424,0.020705400691801667,0.01602448945260303,0.013020189273233684,0.00975324527885412,0.013264136680061753,0.0002324876788421695,0.00042643617877512874
46.841094037299236,16.847729757268848,0.0074742224267688616,0.006619745666655839,0.00829074434495297,0.007436652659114101,0.019614815432180424,0.020705400691801667,0.01602448945260303,0.013020189273233684,0.00975324527885412,0.013264136680061753,0.0002324876788421695,0.00042643617877512874
46.84112127299249,16.847728602181395,0.0074742224267688616,0.006619745666655839,0.00829074434495297,0.007436652659114101,0.019614815432180424,0.020705400691801667,0.01602448945260303,0.013020189273233684,0.00975324527885412,0.013264136680061753,0.0002324876788421695,0.00042643617877512874
46.84114829352197,16.847727572677247,0.0074742224267688616,0.006619745666655839,0.00829074434495297,0.007436652659114101,0.019614815432180424,0.020705400691801667,0.01602448945260303,0.013020189273233684,0.00975324527885412,0.013264136680061753,0.0002324876788421695,0.00042643617877512874
46.84118967100868,16.847726178189504,0.0074742224267688616,0.006619745666655839,0.00829074434495297,0.007436652659114101,0.019614815432180424,0.020705400691801667,0.01602448945260303,0.013020189273233684,0.00975324527885412,0.013264136680061753,0.0002324876788421695,0.00042643617877512874
46.84120305342954,16.847725744651182,0.0074742224267688616,0.006619745666655839,0.00829074434495297,0.007436652659114101,0.019614815432180424,0.020705400691801667,0.01602448945260303,0.013020189273233684,0.00975324527885412,0.013264136680061753,0.0002324876788421695,0.00042643617877512874
46.84123646920733,16.847724673987717,0.0074742224267688616,0.006619745666655839,0.00829074434495297,0.007436652659114101,0.019614815432180424,0.020705400691801667,0.01602448945260303,0.013020189273233684,0.00975324527885412,0.013264136680061753,0.0002324876788421695,0.00042643617877512874
46.8412633448627,16.847723830485233,0.0074742224267688616,0.006619745666655839,0.00829074434495297,0.007436652659114101,0.019614815432180424,0.020705400691801667,0.01602448945260303,0.013020189273233684,0.00975324527885412,0.013264136680061753,0.0002324876788421695,0.00042643617877512874
46.841292917020304,16.847722915547944,0.0074742224267688616,0.006619745666655839,0.00829074434495297,0.007436652659114101,0.019614815432180424,0.020705400691801667,0.01602448945260303,0.013020189273233684,0.00975324527885412,0.013264136680061753,0.0002324876788421695,0.00042643617877512874
46.84132037030697,16.847722067271327,0.0074742224267688616,0.006619745666655839,0.00829074434495297,0.007436652659114101,0.019614815432180424,0.020705400691801667,0.01602448945260303,0.013020189273233684,0.00975324527885412,0.013264136680061753,0.0002324876788421695,0.00042643617877512874
46.84134455234497,16.84772132041412,0.0074742224267688616,0.006619745666655839,0.00829074434495297,0.007436652659114101,0.019614815432180424,0.020705400691801667,0.01602448945260303,0.013020189273233684,0.00975324527885412,0.013264136680061753,0.0002324876788421695,0.00042643617877512874
46.84136258757092,16.84772076357705,0.0074742224267688616,0.006619745666655839,0.00829074434495297,0.007436652659114101,0.019614815432180424,0.020705400691801667,0.01602448945260303,0.013020189273233684,0.00975324527885412,0.013264136680061753,0.0002324876788421695,0.00042643617877512874
46.84140202398318,16.847719525944683,0.0074742224267688616,0.006619745666655839,0.00829074434495297,0.007436652659114101,0.019614815432180424,0.020705400691801667,0.01602448945260303,0.013020189273233684,0.00975324527885412,0.013264136680061753,0.0002324876788421695,0.00042643617877512874
46.84143336678077,16.84771847763277,0.0074742224267688616,0.006619745666655839,0.00829074434495297,0.007436652659114101,0.019614815432180424,0.020705400691801667,0.01602448945260303,0.013020189273233684,0.00975324527885412,0.013264136680061753,0.0002324876788421695,0.00042643617877512874
46.841471667703544,16.84771711159266,0.0074742224267688616,0.006619745666655839,0.00829074434495297,0.007436652659114101,0.019614815432180424,0.020705400691801667,0.01602448945260303,0.013020189273233684,0.00975324527885412,0.013264136680061753,0.0002324876788421695,0.00042643617877512874
46.84149266241963,16.84771636464784,0.0074742224267688616,0.006619745666655839,0.00829074434495297,0.007436652659114101,0.019614815432180424,0.020705400691801667,0.01602448945260303,0.013020189273233684,0.00975324527885412,0.013264136680061753,0.0002324876788421695,0.00042643617877512874
46.84152804406826,16.84771547175341,0.0074742224267688616,0.006619745666655839,0.00829074434495297,0.007436652659114101,0.019614815432180424,0.020705400691801667,0.01602448945260303,0.013020189273233684,0.00975324527885412,0.013264136680061753,0.0002324876788421695,0.00042643617877512874
46.841560712406775,16.847715086014325,0.0074742224267688616,0.006619745666655839,0.00829074434495297,0.007436652659114101,0.019614815432180424,0.020705400691801667,0.01602448945260303,0.013020189273233684,0.00975324527885412,0.013264136680061753,0.0002324876788421695,0.00042643617877512874
46.841587633984844,16.847715019039583,0.0074742224267688616,0.006619745666655839,0.00829074434495297,0.007436652659114101,0.019614815432180424,0.020705400691801667,0.01602448945260303,0.013020189273233684,0.00975324527885412,0.013264136680061753,0.0002324876788421695,0.00042643617877512874
46.84161207416175,16.847714784530844,0.0074742224267688616,0.006619745666655839,0.00829074434495297,0.007436652659114101,0.019614815432180424,0.020705400691801667,0.01602448945260303,0.013020189273233684,0.00975324527885412,0.013264136680061753,0.0002324876788421695,0.00042643617877512874
46.84165208122946,16.847713923676206,0.0074742224267688616,0.006619745666655839,0.00829074434495297,0.007436652659114101,0.019614815432180424,0.020705400691801667,0.01602448945260303,0.013020189273233684,0.00975324527885412,0.013264136680061753,0.0002324876788421695,0.00042643617877512874
46.84167575248012,16.84771312248328,0.0074742224267688616,0.006619745666655839,0.00829074434495297,0.007436652659114101,0.019614815432180424,0.020705400691801667,0.01602448945260303,0.013020189273233684,0.00975324527885412,0.013264136680061753,0.0002324876788421695,0.00042643617877512874
46.84170482981213,16.847712072829445,0.0074742224267688616,0.006619745666655839,0.00829074434495297,0.007436652659114101,0.019614815432180424,0.020705400691801667,0.01602448945260303,0.013020189273233684,0.00975324527885412,0.013264136680061753,0.0002324876788421695,0.00042643617877512874
46.8417294076589,16.84771113102053,0.0074742224267688616,0.006619745666655839,0.00829074434495297,0.007436652659114101,0.019614815432180424,0.020705400691801667,0.01602448945260303,0.013020189273233684,0.00975324527885412,0.013264136680061753,0.0002324876788421695,0.00042643617877512874
46.84175393681255,16.84771014481957,0.0074742224267688616,0.006619745666655839,0.00829074434495297,0.007436652659114101,0.019614815432180424,0.020705400691801667,0.01602448945260303,0.013020189273233684,0.00975324527885412,0.013264136680061753,0.0002324876788421695,0.00042643617877512874
46.84178438097876,16.847708891163023,0.0074742224267688616,0.006619745666655839,0.00829074434495297,0.007436652659114101,0.019614815432180424,0.020705400691801667,0.01602448945260303,0.013020189273233684,0.00975324527885412,0.013264136680061753,0.0002324876788421695,0.00042643617877512874
46.84181017347682,16.84770782902194,0.0074742224267688616,0.006619745666655839,0.00829074434495297,0.007436652659114101,0.019614815432180424,0.020705400691801667,0.01602448945260303,0.013020189273233684,0.00975324527885412,0.013264136680061753,0.0002324876788421695,0.00042643617877512874
46.84183736052676,16.84770670945037,0.0074742224267688616,0.006619745666655839,0.00829074434495297,0.007436652659114101,0.019614815432180424,0.020705400691801667,0.01602448945260303,0.013020189273233684,0.00975324527885412,0.013264136680061753,0.0002324876788421695,0.00042643617877512874
46.841872776479924,16.84770530938799,0.0074742224267688616,0.006619745666655839,0.00829074434495297,0.007436652659114101,0.019614815432180424,0.020705400691801667,0.01602448945260303,0.013020189273233684,0.00975324527885412,0.013264136680061753,0.0002324876788421695,0.00042643617877512874
46.84189958058708,16.8477044334638,0.0074742224267688616,0.006619745666655839,0.00829074434495297,0.007436652659114101,0.019614815432180424,0.020705400691801667,0.01602448945260303,0.013020189273233684,0.00975324527885412,0.013264136680061753,0.0002324876788421695,0.00042643617877512874
46.841924374005956,16.847703771760944,0.0074742224267688616,0.006619745666655839,0.00829074434495297,0.007436652659114101,0.019614815432180424,0.020705400691801667,0.01602448945260303,0.013020189273233684,0.00975324527885412,0.013264136680061753,0.0002324876788421695,0.00042643617877512874
46.84194959069636,16.847703243777303,0.0074742224267688616,0.006619745666655839,0.00829074434495297,0.007436652659114101,0.019614815432180424,0.020705400691801667,0.01602448945260303,0.013020189273233684,0.00975324527885412,0.013264136680061753,0.0002324876788421695,0.00042643617877512874
46.84197856368073,16.847702704049016,0.0074742224267688616,0.006619745666655839,0.00829074434495297,0.007436652659114101,0.019614815432180424,0.020705400691801667,0.01602448945260303,0.013020189273233684,0.00975324527885412,0.013264136680061753,0.0002324876788421695,0.00042643617877512874
46.84200419151462,16.847702209490464,0.0074742224267688616,0.006619745666655839,0.00829074434495297,0.007436652659114101,0.019614815432180424,0.020705400691801667,0.01602448945260303,0.013020189273233684,0.00975324527885412,0.013264136680061753,0.0002324876788421695,0.00042643617877512874
46.84203152982548,16.84770166507769,0.0074742224267688616,0.006619745666655839,0.00829074434495297,0.007436652659114101,0.019614815432180424,0.020705400691801667,0.01602448945260303,0.013020189273233684,0.00975324527885412,0.013264136680061753,0.0002324876788421695,0.00042643617877512874
46.84205585159837,16.84770115712483,0.0074742224267688616,0.006619745666655839,0.00829074434495297,0.007436652659114101,0.019614815432180424,0.020705400691801667,0.01602448945260303,0.013020189273233684,0.00975324527885412,0.013264136680061753,0.0002324876788421695,0.00042643617877512874
46.84208071472078,16.847699870546318,0.0074742224267688616,0.006619745666655839,0.00829074434495297,0.007436652659114101,0.019614815432180424,0.020705400691801667,0.01602448945260303,0.013020189273233684,0.00975324527885412,0.013264136680061753,0.0002324876788421695,0.00042643617877512874
46.84210689044408,16.847697209894587,0.0074742224267688616,0.006619745666655839,0.00829074434495297,0.007436652659114101,0.019614815432180424,0.020705400691801667,0.01602448945260303,0.013020189273233684,0.00975324527885412,0.013264136680061753,0.0002324876788421695,0.00042643617877512874
46.842135920823395,16.847692725080105,0.0074742224267688616,0.006619745666655839,0.00829074434495297,0.007436652659114101,0.019614815432180424,0.020705400691801667,0.01602448945260303,0.013020189273233684,0.00975324527885412,0.013264136680061753,0.0002324876788421695,0.00042643617877512874
46.842155275973894,16.847688857886293,0.0074742224267688616,0.006619745666655839,0.00829074434495297,0.007436652659114101,0.019614815432180424,0.020705400691801667,0.01602448945260303,0.013020189273233684,0.00975324527885412,0.013264136680061753,0.0002324876788421695,0.00042643617877512874
46.84219231844506,16.847682166043892,0.0074742224267688616,0.006619745666655839,0.00829074434495297,0.007436652659114101,0.019614815432180424,0.020705400691801667,0.01602448945260303,0.013020189273233684,0.00975324527885412,0.013264136680061753,0.0002324876788421695,0.00042643617877512874
46.84221794404131,16.84768096948981,0.0074742224267688616,0.006619745666655839,0.00829074434495297,0.007436652659114101,0.019614815432180424,0.020705400691801667,0.01602448945260303,0.013020189273233684,0.00975324527885412,0.013264136680061753,0.0002324876788421695,0.00042643617877512874
46.842244823348246,16.847682802243938,0.0074742224267688616,0.006619745666655839,0.00829074434495297,0.007436652659114101,0.019614815432180424,0.020705400691801667,0.01602448945260303,0.013020189273233684,0.00975324527885412,0.013264136680061753,0.0002324876788421695,0.00042643617877512874
46.84227162875879,16.84768774133515,0.0074742224267688616,0.006619745666655839,0.00829074434495297,0.007436652659114101,0.019614815432180424,0.020705400691801667,0.01602448945260303,0.013020189273233684,0.00975324527885412,0.013264136680061753,0.0002324876788421695,0.00042643617877512874
46.84229986154056,16.84769462683983,0.0074742224267688616,0.006619745666655839,0.00829074434495297,0.007436652659114101,0.019614815432180424,0.020705400691801667,0.01602448945260303,0.013020189273233684,0.00975324527885412,0.013264136680061753,0.0002324876788421695,0.00042643617877512874
46.84232799275498,16.847700169017024,0.0074742224267688616,0.006619745666655839,0.00829074434495297,0.007436652659114101,0.019614815432180424,0.020705400691801667,0.01602448945260303,0.013020189273233684,0.00975324527885412,0.013264136680061753,0.0002324876788421695,0.00042643617877512874
46.8423546628053,16.847704184057115,0.0074742224267688616,0.006619745666655839,0.00829074434495297,0.007436652659114101,0.019614815432180424,0.020705400691801667,0.01602448945260303,0.013020189273233684,0.00975324527885412,0.013264136680061753,0.0002324876788421695,0.00042643617877512874
46.8423831664318,16.84770719856277,0.0074742224267688616,0.006619745666655839,0.00829074434495297,0.007436652659114101,0.019614815432180424,0.020705400691801667,0.01602448945260303,0.013020189273233684,0.00975324527885412,0.013264136680061753,0.0002324876788421695,0.00042643617877512874
46.84240994668327,16.847708955050955,0.0074742224267688616,0.006619745666655839,0.00829074434495297,0.007436652659114101,0.019614815432180424,0.020705400691801667,0.01602448945260303,0.013020189273233684,0.00975324527885412,0.013264136680061753,0.0002324876788421695,0.00042643617877512874
46.842436158346125,16.847710090360696,0.0074742224267688616,0.006619745666655839,0.00829074434495297,0.007436652659114101,0.019614815432180424,0.020705400691801667,0.01602448945260303,0.013020189273233684,0.00975324527885412,0.013264136680061753,0.0002324876788421695,0.00042643617877512874
46.84246206106039,16.84771068564622,0.0074742224267688616,0.006619745666655839,0.00829074434495297,0.007436652659114101,0.019614815432180424,0.020705400691801667,0.01602448945260303,0.013020189273233684,0.00975324527885412,0.013264136680061753,0.0002324876788421695,0.00042643617877512874
46.84248892664778,16.847710729413595,0.0074742224267688616,0.006619745666655839,0.00829074434495297,0.007436652659114101,0.019614815432180424,0.020705400691801667,0.01602448945260303,0.013020189273233684,0.00975324527885412,0.013264136680061753,0.0002324876788421695,0.00042643617877512874
46.84252065041249,16.847710015174233,0.0074742224267688616,0.006619745666655839,0.00829074434495297,0.007436652659114101,0.019614815432180424,0.020705400691801667,0.01602448945260303,0.013020189273233684,0.00975324527885412,0.013264136680061753,0.0002324876788421695,0.00042643617877512874
46.8425598943704,16.847708643313048,0.0074742224267688616,0.006619745666655839,0.00829074434495297,0.007436652659114101,0.019614815432180424,0.020705400691801667,0.01602448945260303,0.013020189273233684,0.00975324527885412,0.013264136680061753,0.0002324876788421695,0.00042643617877512874
46.84256897418302,16.847708252491536,0.0074742224267688616,0.006619745666655839,0.00829074434495297,0.007436652659114101,0.019614815432180424,0.020705400691801667,0.01602448945260303,0.013020189273233684,0.00975324527885412,0.013264136680061753,0.0002324876788421695,0.00042643617877512874
46.842596032211894,16.84770707291297,0.0074742224267688616,0.006619745666655839,0.00829074434495297,0.007436652659114101,0.019614815432180424,0.020705400691801667,0.01602448945260303,0.013020189273233684,0.00975324527885412,0.013264136680061753,0.0002324876788421695,0.00042643617877512874
46.84262481888812,16.847705661298498,0.0074742224267688616,0.006619745666655839,0.00829074434495297,0.007436652659114101,0.019614815432180424,0.020705400691801667,0.01602448945260303,0.013020189273233684,0.00975324527885412,0.013264136680061753,0.0002324876788421695,0.00042643617877512874
46.842652368990066,16.847704223101292,0.0074742224267688616,0.006619745666655839,0.00829074434495297,0.007436652659114101,0.019614815432180424,0.020705400691801667,0.01602448945260303,0.013020189273233684,0.00975324527885412,0.013264136680061753,0.0002324876788421695,0.00042643617877512874
46.84268310811575,16.847702618123378,0.0074742224267688616,0.006619745666655839,0.00829074434495297,0.007436652659114101,0.019614815432180424,0.020705400691801667,0.01602448945260303,0.013020189273233684,0.00975324527885412,0.013264136680061753,0.0002324876788421695,0.00042643617877512874
46.84271018147537,16.847701204545494,0.013188764104515934,0.02877265456968222,0.004092558253489915,0.013978544779316891,0.05693951664967051,0.07168526802238268,0.11130575901858818,0.2168679754874526,0.025002397273550997,0.047111183347868395,0.0006047521554020152,0.0014768263877681614
46.842735571278425,16.847699879275876,0.013188764104515934,0.02877265456968222,0.004092558253489915,0.013978544779316891,0.05693951664967051,0.07168526802238268,0.11130575901858818,0.2168679754874526,0.025002397273550997,0.047111183347868395,0.0006047521554020152,0.0014768263877681614
46.8427611604143,16.847698617523537,0.013188764104515934,0.02877265456968222,0.004092558253489915,0.013978544779316891,0.05693951664967051,0.07168526802238268,0.11130575901858818,0.2168679754874526,0.025002397273550997,0.047111183347868395,0.0006047521554020152,0.0014768263877681614
46.84278947521862,16.847697368981763,0.013188764104515934,0.02877265456968222,0.004092558253489915,0.013978544779316891,0.05693951664967051,0.07168526802238268,0.11130575901858818,0.2168679754874526,0.025002397273550997,0.047111183347868395,0.0006047521554020152,0.0014768263877681614
46.84281535085245,16.84769636084563,0.013188764104515934,0.02877265456968222,0.004092558253489915,0.013978544779316891,0.05693951664967051,0.07168526802238268,0.11130575901858818,0.2168679754874526,0.025002397273550997,0.047111183347868395,0.0006047521554020152,0.0014768263877681614
46.84284155892652,16.847695467185712,0.012462858119666602,0.013229182574620168,0.0036996122569096287,0.007691097998540217,0.02191927253669944,0.03287772887923898,0.028581675360565446,0.019970466528832758,0.02152557650694405,0.025771731348228466,0.0006342320018449284,0.0010214581386762485
46.84286717991494,16.847694652018948,0.012462858119666602,0.013229182574620168,0.0036996122569096287,0.007691097998540217,0.02191927253669944,0.03287772887923898,0.028581675360565446,0.019970466528832758,0.02152557650694405,0.025771731348228466,0.0006342320018449284,0.0010214581386762485
46.84289173846304,16.847693870103015,0.012462858119666602,0.013229182574620168,0.0036996122569096287,0.007691097998540217,0.02191927253669944,0.03287772887923898,0.028581675360565446,0.019970466528832758,0.02152557650694405,0.025771731348228466,0.0006342320018449284,0.0010214581386762485
46.84291177289011,16.84769323187564,0.012462858119666602,0.013229182574620168,0.0036996122569096287,0.007691097998540217,0.02191927253669944,0.03287772887923898,0.028581675360565446,0.019970466528832758,0.02152557650694405,0.025771731348228466,0.0006342320018449284,0.0010214581386762485
46.842948686352976,16.847692054957413,0.012462858119666602,0.013229182574620168,0.0036996122569096287,0.007691097998540217,0.02191927253669944,0.03287772887923898,0.028581675360565446,0.019970466528832758,0.02152557650694405,0.025771731348228466,0.0006342320018449284,0.0010214581386762485
46.84297414215556,16.847691214313986,0.012462858119666602,0.013229182574620168,0.0036996122569096287,0.007691097998540217,0.02191927253669944,0.03287772887923898,0.028581675360565446,0.019970466528832758,0.02152557650694405,0.025771731348228466,0.0006342320018449284,0.0010214581386762485
46.84299879469914,16.847690338596188,0.012462858119666602,0.013229182574620168,0.0036996122569096287,0.007691097998540217,0.02191927253669944,0.03287772887923898,0.028581675360565446,0.019970466528832758,0.02152557650694405,0.025771731348228466,0.0006342320018449284,0.0010214581386762485
46.84302523906905,16.847689329777793,0.012462858119666602,0.013229182574620168,0.0036996122569096287,0.007691097998540217,0.02191927253669944,0.03287772887923898,0.028581675360565446,0.019970466528832758,0.02152557650694405,0.025771731348228466,0.0006342320018449284,0.0010214581386762485
46.84305357573685,16.84768816629558,0.012462858119666602,0.013229182574620168,0.0036996122569096287,0.007691097998540217,0.02191927253669944,0.03287772887923898,0.028581675360565446,0.019970466528832758,0.02152557650694405,0.025771731348228466,0.0006342320018449284,0.0010214581386762485
46.843077009897556,16.84768714773992,0.012462858119666602,0.013229182574620168,0.0036996122569096287,0.007691097998540217,0.02191927253669944,0.03287772887923898,0.028581675360565446,0.019970466528832758,0.02152557650694405,0.025771731348228466,0.0006342320018449284,0.0010214581386762485
46.84310315016633,16.847685982784743,0.012462858119666602,0.013229182574620168,0.0036996122569096287,0.007691097998540217,0.02191927253669944,0.03287772887923898,0.028581675360565446,0.019970466528832758,0.02152557650694405,0.025771731348228466,0.0006342320018449284,0.0010214581386762485
46.84313129958526,16.84768469685185,0.012462858119666602,0.013229182574620168,0.0036996122569096287,0.007691097998540217,0.02191927253669944,0.03287772887923898,0.028581675360565446,0.019970466528832758,0.02152557650694405,0.025771731348228466,0.0006342320018449284,0.0010214581386762485
46.84315559150264,16.847683561323564,0.012462858119666602,0.013229182574620168,0.0036996122569096287,0.007691097998540217,0.02191927253669944,0.03287772887923898,0.028581675360565446,0.019970466528832758,0.02152557650694405,0.025771731348228466,0.0006342320018449284,0.0010214581386762485
46.84318550512793,16.84768208260471,0.012462858119666602,0.013229182574620168,0.0036996122569096287,0.007691097998540217,0.02191927253669944,0.03287772887923898,0.028581675360565446,0.019970466528832758,0.02152557650694405,0.025771731348228466,0.0006342320018449284,0.0010214581386762485
46.84321538348468,16.847680347512828,0.012462858119666602,0.013229182574620168,0.0036996122569096287,0.007691097998540217,0.02191927253669944,0.03287772887923898,0.028581675360565446,0.019970466528832758,0.02152557650694405,0.025771731348228466,0.0006342320018449284,0.0010214581386762485
46.84324211256641,16.847678568432563,0.012462858119666602,0.013229182574620168,0.0036996122569096287,0.007691097998540217,0.02191927253669944,0.03287772887923898,0.028581675360565446,0.019970466528832758,0.02152557650694405,0.025771731348228466,0.0006342320018449284,0.0010214581386762485
46.84326757912633,16.847676676083218,0.012462858119666602,0.013229182574620168,0.0036996122569096287,0.007691097998540217,0.02191927253669944,0.03287772887923898,0.028581675360565446,0.019970466528832758,0.02152557650694405,0.025771731348228466,0.0006342320018449284,0.0010214581386762485
46.84329262198536,16.847674556567622,0.012462858119666602,0.013229182574620168,0.0036996122569096287,0.007691097998540217,0.02191927253669944,0.03287772887923898,0.028581675360565446,0.019970466528832758,0.02152557650694405,0.025771731348228466,0.0006342320018449284,0.0010214581386762485
46.84331747700342,16.847671961538392,0.012462858119666602,0.013229182574620168,0.0036996122569096287,0.007691097998540217,0.02191927253669944,0.03287772887923898,0.028581675360565446,0.019970466528832758,0.02152557650694405,0.025771731348228466,0.0006342320018449284,0.0010214581386762485
46.8433458433305,16.847668379123125,0.012462858119666602,0.013229182574620168,0.0036996122569096287,0.007691097998540217,0.02191927253669944,0.03287772887923898,0.028581675360565446,0.019970466528832758,0.02152557650694405,0.025771731348228466,0.0006342320018449284,0.0010214581386762485
46.84337210882595,16.847664471039675,0.012462858119666602,0.013229182574620168,0.0036996122569096287,0.007691097998540217,0.02191927253669944,0.03287772887923898,0.028581675360565446,0.019970466528832758,0.02152557650694405,0.025771731348228466,0.0006342320018449284,0.0010214581386762485
46.84339843779933,16.84766002285428,0.012462858119666602,0.013229182574620168,0.0036996122569096287,0.007691097998540217,0.02191927253669944,0.03287772887923898,0.028581675360565446,0.019970466528832758,0.02152557650694405,0.025771731348228466,0.0006342320018449284,0.0010214581386762485
46.843424640841,16.847655422745742,0.012462858119666602,0.013229182574620168,0.0036996122569096287,0.007691097998540217,0.02191927253669944,0.03287772887923898,0.028581675360565446,0.019970466528832758,0.02152557650694405,0.025771731348228466,0.0006342320018449284,0.0010214581386762485
46.843450583836784,16.847650780687587,0.012462858119666602,0.013229182574620168,0.0036996122569096287,0.007691097998540217,0.02191927253669944,0.03287772887923898,0.028581675360565446,0.019970466528832758,0.02152557650694405,0.025771731348228466,0.0006342320018449284,0.0010214581386762485
46.84347674272838,16.84764601156126,0.012462858119666602,0.013229182574620168,0.0036996122569096287,0.007691097998540217,0.02191927253669944,0.03287772887923898,0.028581675360565446,0.019970466528832758,0.02152557650694405,0.025771731348228466,0.0006342320018449284,0.0010214581386762485
46.843502055743855,16.84764131287381,0.06941728585994071,0.07867454527146023,0.008056237660776686,0.013183135010860035,0.09192429993073492,0.12791395777196457,0.05425352743504164,0.030051444291409067,0.15539200801861827,0.1865063005082733,0.0004745195555638268,0.001826252483692347
46.84352683700408,16.84763667776781,0.06941728585994071,0.07867454527146023,0.008056237660776686,0.013183135010860035,0.09192429993073492,0.12791395777196457,0.05425352743504164,0.030051444291409067,0.15539200801861827,0.1865063005082733,0.0004745195555638268,0.001826252483692347
46.843547778715646,16.847632753701397,0.06941728585994071,0.07867454527146023,0.008056237660776686,0.013183135010860035,0.09192429993073492,0.12791395777196457,0.05425352743504164,0.030051444291409067,0.15539200801861827,0.1865063005082733,0.0004745195555638268,0.001826252483692347
46.84358135127392,16.847626449222403,0.06941728585994071,0.07867454527146023,0.008056237660776686,0.013183135010860035,0.09192429993073492,0.12791395777196457,0.05425352743504164,0.030051444291409067,0.15539200801861827,0.1865063005082733,0.0004745195555638268,0.001826252483692347
46.84360701248278,16.84762161979908,0.06941728585994071,0.07867454527146023,0.008056237660776686,0.013183135010860035,0.09192429993073492,0.12791395777196457,0.05425352743504164,0.030051444291409067,0.15539200801861827,0.1865063005082733,0.0004745195555638268,0.001826252483692347
46.843633812249124,16.847616561090422,0.034409959920582746,0.05488439215569646,0.00608794369998605,0.01699077631573472,0.10314848628252743,0.16006283691893222,0.05248416784227642,0.03333902975109739,0.05785794390033028,0.09960484911486203,0.0010217186547996956,0.0010194523746984876
46.84366005399934,16.84761158469601,0.034409959920582746,0.05488439215569646,0.00608794369998605,0.01699077631573472,0.10314848628252743,0.16006283691893222,0.05248416784227642,0.03333902975109739,0.05785794390033028,0.09960484911486203,0.0010217186547996956,0.0010194523746984876
46.8436858688976,16.84760666641483,0.034409959920582746,0.05488439215569646,0.00608794369998605,0.01699077631573472,0.10314848628252743,0.16006283691893222,0.05248416784227642,0.03333902975109739,0.05785794390033028,0.09960484911486203,0.0010217186547996956,0.0010194523746984876
46.84371197646488,16.84760166877588,0.034409959920582746,0.05488439215569646,0.00608794369998605,0.01699077631573472,0.10314848628252743,0.16006283691893222,0.05248416784227642,0.03333902975109739,0.05785794390033028,0.09960484911486203,0.0010217186547996956,0.0010194523746984876
46.84373692664887,16.847596575990895,0.034409959920582746,0.05488439215569646,0.00608794369998605,0.01699077631573472,0.10314848628252743,0.16006283691893222,0.05248416784227642,0.03333902975109739,0.05785794390033028,0.09960484911486203,0.0010217186547996956,0.0010194523746984876
46.843766002738356,16.847587959589884,0.008586596879204766,0.005424574347208853,0.008230082417685249,0.005875148541318374,0.012639245444170409,0.02228664185629378,0.008040510486450011,0.010634416489914707,0.007164607839441907,0.012276595658891339,0.0059421098842435205,0.00047132975925665726
46.84379185489185,16.84757759850166,0.008586596879204766,0.005424574347208853,0.008230082417685249,0.005875148541318374,0.012639245444170409,0.02228664185629378,0.008040510486450011,0.010634416489914707,0.007164607839441907,0.012276595658891339,0.0059421098842435205,0.00047132975925665726
46.84381930272885,16.84756386511817,0.008586596879204766,0.005424574347208853,0.008230082417685249,0.005875148541318374,0.012639245444170409,0.02228664185629378,0.008040510486450011,0.010634416489914707,0.007164607839441907,0.012276595658891339,0.0059421098842435205,0.00047132975925665726
46.843843551684564,16.847549509687827,0.008586596879204766,0.005424574347208853,0.008230082417685249,0.005875148541318374,0.012639245444170409,0.02228664185629378,0.008040510486450011,0.010634416489914707,0.007164607839441907,0.012276595658891339,0.0059421098842435205,0.00047132975925665726
46.84387288802272,16.847533317043705,0.008586596879204766,0.005424574347208853,0.008230082417685249,0.005875148541318374,0.012639245444170409,0.02228664185629378,0.008040510486450011,0.010634416489914707,0.007164607839441907,0.012276595658891339,0.0059421098842435205,0.00047132975925665726
46.84389344500679,16.847523722758563,0.008586596879204766,0.005424574347208853,0.008230082417685249,0.005875148541318374,0.012639245444170409,0.02228664185629378,0.008040510486450011,0.010634416489914707,0.007164607839441907,0.012276595658891339,0.0059421098842435205,0.00047132975925665726
46.84392452856281,16.84751208539388,0.008586596879204766,0.005424574347208853,0.008230082417685249,0.005875148541318374,0.012639245444170409,0.02228664185629378,0.008040510486450011,0.010634416489914707,0.007164607839441907,0.012276595658891339,0.0059421098842435205,0.00047132975925665726
46.843951078600895,16.847504847999616,0.008586596879204766,0.005424574347208853,0.008230082417685249,0.005875148541318374,0.012639245444170409,0.02228664185629378,0.008040510486450011,0.010634416489914707,0.007164607839441907,0.012276595658891339,0.0059421098842435205,0.00047132975925665726
46.84397847152861,16.847498895710185,0.008586596879204766,0.005424574347208853,0.008230082417685249,0.005875148541318374,0.012639245444170409,0.02228664185629378,0.008040510486450011,0.010634416489914707,0.007164607839441907,0.012276595658891339,0.0059421098842435205,0.00047132975925665726
46.84400621880782,16.84749300298505,0.008586596879204766,0.005424574347208853,0.008230082417685249,0.005875148541318374,0.012639245444170409,0.02228664185629378,0.008040510486450011,0.010634416489914707,0.007164607839441907,0.012276595658891339,0.0059421098842435205,0.00047132975925665726
46.84403132068772,16.847487786356957,0.008586596879204766,0.005424574347208853,0.008230082417685249,0.005875148541318374,0.012639245444170409,0.02228664185629378,0.008040510486450011,0.010634416489914707,0.007164607839441907,0.012276595658891339,0.0059421098842435205,0.00047132975925665726
46.844055981281954,16.847482766741102,0.008586596879204766,0.005424574347208853,0.008230082417685249,0.005875148541318374,0.012639245444170409,0.02228664185629378,0.008040510486450011,0.010634416489914707,0.007164607839441907,0.012276595658891339,0.0059421098842435205,0.00047132975925665726
46.844085886186576,16.84747690044558,0.008586596879204766,0.005424574347208853,0.008230082417685249,0.005875148541318374,0.012639245444170409,0.02228664185629378,0.008040510486450011,0.010634416489914707,0.007164607839441907,0.012276595658891339,0.0059421098842435205,0.00047132975925665726
46.84411353722573,16.8474718986035,0.008586596879204766,0.005424574347208853,0.008230082417685249,0.005875148541318374,0.012639245444170409,0.02228664185629378,0.008040510486450011,0.010634416489914707,0.007164607839441907,0.012276595658891339,0.0059421098842435205,0.00047132975925665726
46.8441396920438,16.847467560323,0.008586596879204766,0.005424574347208853,0.008230082417685249,0.005875148541318374,0.012639245444170409,0.02228664185629378,0.008040510486450011,0.010634416489914707,0.007164607839441907,0.012276595658891339,0.0059421098842435205,0.00047132975925665726
46.84416739028585,16.847463390936774,0.008586596879204766,0.005424574347208853,0.008230082417685249,0.005875148541318374,0.012639245444170409,0.02228664185629378,0.008040510486450011,0.010634416489914707,0.007164607839441907,0.012276595658891339,0.0059421098842435205,0.00047132975925665726
46.84419266718361,16.847460279992493,0.008586596879204766,0.005424574347208853,0.008230082417685249,0.005875148541318374,0.012639245444170409,0.02228664185629378,0.008040510486450011,0.010634416489914707,0.007164607839441907,0.012276595658891339,0.0059421098842435205,0.00047132975925665726
46.84421951840086,16.84745911815678,0.008586596879204766,0.005424574347208853,0.008230082417685249,0.005875148541318374,0.012639245444170409,0.02228664185629378,0.008040510486450011,0.010634416489914707,0.007164607839441907,0.012276595658891339,0.0059421098842435205,0.00047132975925665726
46.84424994378729,16.847460747247933,0.008586596879204766,0.005424574347208853,0.008230082417685249,0.005875148541318374,0.012639245444170409,0.02228664185629378,0.008040510486450011,0.010634416489914707,0.007164607839441907,0.012276595658891339,0.0059421098842435205,0.00047132975925665726
46.84428269636795,16.847466127658468,0.008586596879204766,0.005424574347208853,0.008230082417685249,0.005875148541318374,0.012639245444170409,0.02228664185629378,0.008040510486450011,0.010634416489914707,0.007164607839441907,0.012276595658891339,0.0059421098842435205,0.00047132975925665726
46.844320256096395,16.847472684109157,0.008586596879204766,0.005424574347208853,0.008230082417685249,0.005875148541318374,0.012639245444170409,0.02228664185629378,0.008040510486450011,0.010634416489914707,0.007164607839441907,0.012276595658891339,0.0059421098842435205,0.00047132975925665726
46.844339611213584,16.84747365705153,0.008586596879204766,0.005424574347208853,0.008230082417685249,0.005875148541318374,0.012639245444170409,0.02228664185629378,0.008040510486450011,0.010634416489914707,0.007164607839441907,0.012276595658891339,0.0059421098842435205,0.00047132975925665726
46.84436481514969,16.847472662124968,0.008586596879204766,0.005424574347208853,0.008230082417685249,0.005875148541318374,0.012639245444170409,0.02228664185629378,0.008040510486450011,0.010634416489914707,0.007164607839441907,0.012276595658891339,0.0059421098842435205,0.00047132975925665726
46.844395270408754,16.847467844883848,0.008586596879204766,0.005424574347208853,0.008230082417685249,0.005875148541318374,0.012639245444170409,0.02228664185629378,0.008040510486450011,0.010634416489914707,0.007164607839441907,0.012276595658891339,0.0059421098842435205,0.00047132975925665726
46.844422597656006,16.84746218350587,0.008586596879204766,0.005424574347208853,0.008230082417685249,0.005875148541318374,0.012639245444170409,0.02228664185629378,0.008040510486450011,0.010634416489914707,0.007164607839441907,0.012276595658891339,0.0059421098842435205,0.00047132975925665726
46.844448952143665,16.847456663700342,0.008586596879204766,0.005424574347208853,0.008230082417685249,0.005875148541318374,0.012639245444170409,0.02228664185629378,0.008040510486450011,0.010634416489914707,0.007164607839441907,0.012276595658891339,0.0059421098842435205,0.00047132975925665726
46.844474980243454,16.84745115761512,0.008586596879204766,0.005424574347208853,0.008230082417685249,0.005875148541318374,0.012639245444170409,0.02228664185629378,0.008040510486450011,0.010634416489914707,0.007164607839441907,0.012276595658891339,0.0059421098842435205,0.00047132975925665726
46.844502794456595,16.847445218127653,0.008586596879204766,0.005424574347208853,0.008230082417685249,0.005875148541318374,0.012639245444170409,0.02228664185629378,0.008040510486450011,0.010634416489914707,0.007164607839441907,0.012276595658891339,0.0059421098842435205,0.00047132975925665726
46.84452767632563,16.847439888851046,0.008586596879204766,0.005424574347208853,0.008230082417685249,0.005875148541318374,0.012639245444170409,0.02228664185629378,0.008040510486450011,0.010634416489914707,0.007164607839441907,0.012276595658891339,0.0059421098842435205,0.00047132975925665726
46.84455296474841,16.847434472497483,0.008586596879204766,0.005424574347208853,0.008230082417685249,0.005875148541318374,0.012639245444170409,0.02228664185629378,0.008040510486450011,0.010634416489914707,0.007164607839441907,0.012276595658891339,0.0059421098842435205,0.00047132975925665726
46.84458340167361,16.84742795342155,0.008586596879204766,0.005424574347208853,0.008230082417685249,0.005875148541318374,0.012639245444170409,0.02228664185629378,0.008040510486450011,0.010634416489914707,0.007164607839441907,0.012276595658891339,0.0059421098842435205,0.00047132975925665726
46.84460837497831,16.847422604546903,0.008586596879204766,0.005424574347208853,0.008230082417685249,0.005875148541318374,0.012639245444170409,0.02228664185629378,0.008040510486450011,0.010634416489914707,0.007164607839441907,0.012276595658891339,0.0059421098842435205,0.00047132975925665726
46.84463481145424,16.847416932726965,0.008586596879204766,0.005424574347208853,0.008230082417685249,0.005875148541318374,0.012639245444170409,0.02228664185629378,0.008040510486450011,0.010634416489914707,0.007164607839441907,0.012276595658891339,0.0059421098842435205,0.00047132975925665726
46.8446588467328,16.84741176047169,0.008586596879204766,0.005424574347208853,0.008230082417685249,0.005875148541318374,0.012639245444170409,0.02228664185629378,0.008040510486450011,0.010634416489914707,0.007164607839441907,0.012276595658891339,0.0059421098842435205,0.00047132975925665726
46.84469965733112,16.84740294581688,0.008586596879204766,0.005424574347208853,0.008230082417685249,0.005875148541318374,0.012639245444170409,0.02228664185629378,0.008040510486450011,0.010634416489914707,0.007164607839441907,0.012276595658891339,0.0059421098842435205,0.00047132975925665726
46.84471617265581,16.847399361928073,0.008586596879204766,0.005424574347208853,0.008230082417685249,0.005875148541318374,0.012639245444170409,0.02228664185629378,0.008040510486450011,0.010634416489914707,0.007164607839441907,0.012276595658891339,0.0059421098842435205,0.00047132975925665726
46.84474471211575,16.847393159724568,0.008586596879204766,0.005424574347208853,0.008230082417685249,0.005875148541318374,0.012639245444170409,0.02228664185629378,0.008040510486450011,0.010634416489914707,0.007164607839441907,0.012276595658891339,0.0059421098842435205,0.00047132975925665726
46.84477230798078,16.847387150198955,0.008586596879204766,0.005424574347208853,0.008230082417685249,0.005875148541318374,0.012639245444170409,0.02228664185629378,0.008040510486450011,0.010634416489914707,0.007164607839441907,0.012276595658891339,0.0059421098842435205,0.00047132975925665726
46.844795955757654,16.847381990774945,0.008586596879204766,0.005424574347208853,0.008230082417685249,0.005875148541318374,0.012639245444170409,0.02228664185629378,0.008040510486450011,0.010634416489914707,0.007164607839441907,0.012276595658891339,0.0059421098842435205,0.00047132975925665726
46.844831634141286,16.847374191844455,0.008586596879204766,0.005424574347208853,0.008230082417685249,0.005875148541318374,0.012639245444170409,0.02228664185629378,0.008040510486450011,0.010634416489914707,0.007164607839441907,0.012276595658891339,0.0059421098842435205,0.00047132975925665726
46.84486146599979,16.847367701968004,0.008586596879204766,0.005424574347208853,0.008230082417685249,0.005875148541318374,0.012639245444170409,0.02228664185629378,0.008040510486450011,0.010634416489914707,0.007164607839441907,0.012276595658891339,0.0059421098842435205,0.00047132975925665726
46.844889493137885,16.847361652128445,0.008586596879204766,0.005424574347208853,0.008230082417685249,0.005875148541318374,0.012639245444170409,0.02228664185629378,0.008040510486450011,0.010634416489914707,0.007164607839441907,0.012276595658891339,0.0059421098842435205,0.00047132975925665726
46.84491278762594,16.84735666100812,0.008586596879204766,0.005424574347208853,0.008230082417685249,0.005875148541318374,0.012639245444170409,0.02228664185629378,0.008040510486450011,0.010634416489914707,0.007164607839441907,0.012276595658891339,0.0059421098842435205,0.00047132975925665726
46.84493850861001,16.847351184136155,0.008586596879204766,0.005424574347208853,0.008230082417685249,0.005875148541318374,0.012639245444170409,0.02228664185629378,0.008040510486450011,0.010634416489914707,0.007164607839441907,0.012276595658891339,0.0059421098842435205,0.00047132975925665726
46.84497762153789,16.847342807331017,0.008586596879204766,0.005424574347208853,0.008230082417685249,0.005875148541318374,0.012639245444170409,0.02228664185629378,0.008040510486450011,0.010634416489914707,0.007164607839441907,0.012276595658891339,0.0059421098842435205,0.00047132975925665726
46.84500632744514,16.847336601924788,0.008586596879204766,0.005424574347208853,0.008230082417685249,0.005875148541318374,0.012639245444170409,0.02228664185629378,0.008040510486450011,0.010634416489914707,0.007164607839441907,0.012276595658891339,0.0059421098842435205,0.00047132975925665726
46.845023332328154,16.84733290356927,0.008586596879204766,0.005424574347208853,0.008230082417685249,0.005875148541318374,0.012639245444170409,0.02228664185629378,0.008040510486450011,0.010634416489914707,0.007164607839441907,0.012276595658891339,0.0059421098842435205,0.00047132975925665726
46.84505880110927,16.84732514855542,0.008586596879204766,0.005424574347208853,0.008230082417685249,0.005875148541318374,0.012639245444170409,0.02228664185629378,0.008040510486450011,0.010634416489914707,0.007164607839441907,0.012276595658891339,0.0059421098842435205,0.00047132975925665726
46.84509486914907,16.847317223503207,0.008586596879204766,0.005424574347208853,0.008230082417685249,0.005875148541318374,0.012639245444170409,0.02228664185629378,0.008040510486450011,0.010634416489914707,0.007164607839441907,0.012276595658891339,0.0059421098842435205,0.00047132975925665726
46.84513951631432,16.847307286507533,0.008586596879204766,0.005424574347208853,0.008230082417685249,0.005875148541318374,0.012639245444170409,0.02228664185629378,0.008040510486450011,0.010634416489914707,0.007164607839441907,0.012276595658891339,0.0059421098842435205,0.00047132975925665726
46.845146905639794,16.847305551183055,0.007770342891500019,0.037022944497184046,0.05962968102430338,0.033233302675867916,0.02425032816540327,0.046317067003617214,0.08191138496125178,0.08317823575441513,0.048550270554612585,0.07983116591305273,0.049037650101360554,0.07474122777585479
46.845201106482364,16.847292281560104,0.007770342891500019,0.037022944497184046,0.05962968102430338,0.033233302675867916,0.02425032816540327,0.046317067003617214,0.08191138496125178,0.08317823575441513,0.048550270554612585,0.07983116591305273,0.049037650101360554,0.07474122777585479
46.84524069843077,16.847281932729864,0.007770342891500019,0.037022944497184046,0.05962968102430338,0.033233302675867916,0.02425032816540327,0.046317067003617214,0.08191138496125178,0.08317823575441513,0.048550270554612585,0.07983116591305273,0.049037650101360554,0.07474122777585479
46.84529761857786,16.847266269117586,0.007770342891500019,0.037022944497184046,0.05962968102430338,0.033233302675867916,0.02425032816540327,0.046317067003617214,0.08191138496125178,0.08317823575441513,0.048550270554612585,0.07983116591305273,0.049037650101360554,0.07474122777585479
46.84534694281021,16.847245572132973,0.007770342891500019,0.037022944497184046,0.05962968102430338,0.033233302675867916,0.02425032816540327,0.046317067003617214,0.08191138496125178,0.08317823575441513,0.048550270554612585,0.07983116591305273,0.049037650101360554,0.07474122777585479
46.8453737823208,16.84678703430614,0.050539626482865585,0.02614939174750778,0.09016649762145212,0.21152297630561345,0.049149199315253335,0.040455067849467743,0.036898391670432,0.0534624349291834,0.03280345024111771,0.05193351340725208,0.03576390155948279,0.007585221579956518
46.84535518333925,16.84663923486639,0.050539626482865585,0.02614939174750778,0.09016649762145212,0.21152297630561345,0.049149199315253335,0.040455067849467743,0.036898391670432,0.0534624349291834,0.03280345024111771,0.05193351340725208,0.03576390155948279,0.007585221579956518
46.84535730528219,16.84662942887095,0.050539626482865585,0.02614939174750778,0.09016649762145212,0.21152297630561345,0.049149199315253335,0.040455067849467743,0.036898391670432,0.0534624349291834,0.03280345024111771,0.05193351340725208,0.03576390155948279,0.007585221579956518
46.84535902012846,16.846499084235617,0.050539626482865585,0.02614939174750778,0.09016649762145212,0.21152297630561345,0.049149199315253335,0.040455067849467743,0.036898391670432,0.0534624349291834,0.03280345024111771,0.05193351340725208,0.03576390155948279,0.007585221579956518
46.84534677213068,16.846264307013705,0.050539626482865585,0.02614939174750778,0.09016649762145212,0.21152297630561345,0.049149199315253335,0.040455067849467743,0.036898391670432,0.0534624349291834,0.03280345024111771,0.05193351340725208,0.03576390155948279,0.007585221579956518
46.845301893974046,16.845835547329642,0.03777767556318663,0.044301746047285484,0.01881710741318687,0.06113651623115283,0.029450081326901932,0.03394809827454615,0.012716996471680243,0.014288651730737385,0.028277607854478123,0.0749574592857534,0.029312934265291118,0.023945080399998653
46.84527110968144,16.845445163553933,0.03777767556318663,0.044301746047285484,0.01881710741318687,0.06113651623115283,0.029450081326901932,0.03394809827454615,0.012716996471680243,0.014288651730737385,0.028277607854478123,0.0749574592857534,0.029312934265291118,0.023945080399998653
46.8452560793354,16.845002448547937,0.03777767556318663,0.044301746047285484,0.01881710741318687,0.06113651623115283,0.029450081326901932,0.03394809827454615,0.012716996471680243,0.014288651730737385,0.028277607854478123,0.0749574592857534,0.029312934265291118,0.023945080399998653
46.845242933190654,16.84458227752738,0.03777767556318663,0.044301746047285484,0.01881710741318687,0.06113651623115283,0.029450081326901932,0.03394809827454615,0.012716996471680243,0.014288651730737385,0.028277607854478123,0.0749574592857534,0.029312934265291118,0.023945080399998653
46.84522070022297,16.84424546357709,0.03777767556318663,0.044301746047285484,0.01881710741318687,0.06113651623115283,0.029450081326901932,0.03394809827454615,0.012716996471680243,0.014288651730737385,0.028277607854478123,0.0749574592857534,0.029312934265291118,0.023945080399998653
46.84522115063119,16.84412815581809,0.001928294905016137,0.0023310427041915234,0.045268404005290176,0.0003639132926785324,0.0016858419951765445,0.019105185011696148,0.0037152792073958554,0.00048690549859426975,0.008663220122183336,0.005994940237094212,0.001217083166594228,0.0003555448641572573
46.845222527361436,16.844075008014375,0.001928294905016137,0.0023310427041915234,0.045268404005290176,0.0003639132926785324,0.0016858419951765445,0.019105185011696148,0.0037152792073958554,0.00048690549859426975,0.008663220122183336,0.005994940237094212,0.001217083166594228,0.0003555448641572573
46.84522354658123,16.844057502400673,0.001928294905016137,0.0023310427041915234,0.045268404005290176,0.0003639132926785324,0.0016858419951765445,0.019105185011696148,0.0037152792073958554,0.00048690549859426975,0.008663220122183336,0.005994940237094212,0.001217083166594228,0.0003555448641572573
46.845236074690696,16.844044123921705,0.001928294905016137,0.0023310427041915234,0.045268404005290176,0.0003639132926785324,0.0016858419951765445,0.019105185011696148,0.0037152792073958554,0.00048690549859426975,0.008663220122183336,0.005994940237094212,0.001217083166594228,0.0003555448641572573
46.84523608374679,16.84404219055311,0.001928294905016137,0.0023310427041915234,0.045268404005290176,0.0003639132926785324,0.0016858419951765445,0.019105185011696148,0.0037152792073958554,0.00048690549859426975,0.008663220122183336,0.005994940237094212,0.001217083166594228,0.0003555448641572573
46.84523608374679,16.84404219055311,0.001928294905016137,0.0023310427041915234,0.045268404005290176,0.0003639132926785324,0.0016858419951765445,0.019105185011696148,0.0037152792073958554,0.00048690549859426975,0.008663220122183336,0.005994940237094212,0.001217083166594228,0.0003555448641572573
46.84523608374679,16.84404219055311,0.001928294905016137,0.0023310427041915234,0.045268404005290176,0.0003639132926785324,0.0016858419951765445,0.019105185011696148,0.0037152792073958554,0.00048690549859426975,0.008663220122183336,0.005994940237094212,0.001217083166594228,0.0003555448641572573
46.84523608374679,16.84404219055311,0.001928294905016137,0.0023310427041915234,0.045268404005290176,0.0003639132926785324,0.0016858419951765445,0.019105185011696148,0.0037152792073958554,0.00048690549859426975,0.008663220122183336,0.005994940237094212,0.001217083166594228,0.0003555448641572573
46.84523608374679,16.84404219055311,0.001928294905016137,0.0023310427041915234,0.045268404005290176,0.0003639132926785324,0.0016858419951765445,0.019105185011696148,0.0037152792073958554,0.00048690549859426975,0.008663220122183336,0.005994940237094212,0.001217083166594228,0.0003555448641572573
46.84523608374679,16.84404219055311,0.001928294905016137,0.0023310427041915234,0.045268404005290176,0.0003639132926785324,0.0016858419951765445,0.019105185011696148,0.0037152792073958554,0.00048690549859426975,0.008663220122183336,0.005994940237094212,0.001217083166594228,0.0003555448641572573
46.84523608374679,16.84404219055311,0.01072968720208504,0.0012402142442532104,0.0823489075376567,0.11083921682390116,0.012598600397531651,0.013786960478748469,0.010846445682133013,0.002447067797665048,0.03461452489744804,0.003859175078269964,0.00494389123137072,0.0019857751410200606
46.84523608374679,16.84404219055311,0.01072968720208504,0.0012402142442532104,0.0823489075376567,0.11083921682390116,0.012598600397531651,0.013786960478748469,0.010846445682133013,0.002447067797665048,0.03461452489744804,0.003859175078269964,0.00494389123137072,0.0019857751410200606
46.84523608374679,16.84404219055311,0.01072968720208504,0.0012402142442532104,0.0823489075376567,0.11083921682390116,0.012598600397531651,0.013786960478748469,0.010846445682133013,0.002447067797665048,0.03461452489744804,0.003859175078269964,0.00494389123137072,0.0019857751410200606
46.84522991643786,16.84402015555547,0.01072968720208504,0.0012402142442532104,0.0823489075376567,0.11083921682390116,0.012598600397531651,0.013786960478748469,0.010846445682133013,0.002447067797665048,0.03461452489744804,0.003859175078269964,0.00494389123137072,0.0019857751410200606
46.845234981223,16.84384310743876,0.01072968720208504,0.0012402142442532104,0.0823489075376567,0.11083921682390116,0.012598600397531651,0.013786960478748469,0.010846445682133013,0.002447067797665048,0.03461452489744804,0.003859175078269964,0.00494389123137072,0.0019857751410200606
46.8452498365298,16.843603185516983,0.029302029528684794,0.04825921711605366,0.01731970813465094,0.02429807648599745,0.04638345030522552,0.07791112929589476,0.04928110084883341,0.09123084438330566,0.04906906938378523,0.05222489522076223,0.04143917656785725,0.05644619808095731
46.84523802480158,16.843451497615543,0.029302029528684794,0.04825921711605366,0.01731970813465094,0.02429807648599745,0.04638345030522552,0.07791112929589476,0.04928110084883341,0.09123084438330566,0.04906906938378523,0.05222489522076223,0.04143917656785725,0.05644619808095731
46.845215304927564,16.843431384149685,0.029302029528684794,0.04825921711605366,0.01731970813465094,0.02429807648599745,0.04638345030522552,0.07791112929589476,0.04928110084883341,0.09123084438330566,0.04906906938378523,0.05222489522076223,0.04143917656785725,0.05644619808095731
46.84520031092971,16.843419038202004,0.029302029528684794,0.04825921711605366,0.01731970813465094,0.02429807648599745,0.04638345030522552,0.07791112929589476,0.04928110084883341,0.09123084438330566,0.04906906938378523,0.05222489522076223,0.04143917656785725,0.05644619808095731
46.84515878714763,16.84338973524128,0.029302029528684794,0.04825921711605366,0.01731970813465094,0.02429807648599745,0.04638345030522552,0.07791112929589476,0.04928110084883341,0.09123084438330566,0.04906906938378523,0.05222489522076223,0.04143917656785725,0.05644619808095731
46.845107005791654,16.843368337451086,0.04942637255432842,0.11641578554030459,0.020043690165747863,0.03756675156369984,0.16264477389201792,0.25955131255510644,0.0705273280298653,0.13014561409026754,0.10775345221392171,0.1256465842253694,0.04494436049483199,0.028703494329872122
46.84506781421433,16.843356105650244,0.04942637255432842,0.11641578554030459,0.020043690165747863,0.03756675156369984,0.16264477389201792,0.25955131255510644,0.0705273280298653,0.13014561409026754,0.10775345221392171,0.1256465842253694,0.04494436049483199,0.028703494329872122
46.8450373233531,16.843346631660047,0.04942637255432842,0.11641578554030459,0.020043690165747863,0.03756675156369984,0.16264477389201792,0.25955131255510644,0.0705273280298653,0.13014561409026754,0.10775345221392171,0.1256465842253694,0.04494436049483199,0.028703494329872122
46.84498927607703,16.843331704283592,0.04942637255432842,0.11641578554030459,0.020043690165747863,0.03756675156369984,0.16264477389201792,0.25955131255510644,0.0705273280298653,0.13014561409026754,0.10775345221392171,0.1256465842253694,0.04494436049483199,0.028703494329872122
46.844961134005665,16.843324097996728,0.04942637255432842,0.11641578554030459,0.020043690165747863,0.03756675156369984,0.16264477389201792,0.25955131255510644,0.0705273280298653,0.13014561409026754,0.10775345221392171,0.1256465842253694,0.04494436049483199,0.028703494329872122
46.8449319702659,16.843318820864,0.016169765349907956,0.04099570387457648,0.004766824495529129,0.02606674727173929,0.08388430094510096,0.2201729457562212,0.05437695540855899,0.1272024218129845,0.038112037962514486,0.08354847344949681,0.0005292008961815967,0.0019422412747656104
46.844896929061065,16.84331516541209,0.016169765349907956,0.04099570387457648,0.004766824495529129,0.02606674727173929,0.08388430094510096,0.2201729457562212,0.05437695540855899,0.1272024218129845,0.038112037962514486,0.08354847344949681,0.0005292008961815967,0.0019422412747656104
46.84485021656206,16.84330679026664,0.016169765349907956,0.04099570387457648,0.004766824495529129,0.02606674727173929,0.08388430094510096,0.2201729457562212,0.05437695540855899,0.1272024218129845,0.038112037962514486,0.08354847344949681,0.0005292008961815967,0.0019422412747656104
46.84482845040181,16.843300853219812,0.016169765349907956,0.04099570387457648,0.004766824495529129,0.02606674727173929,0.08388430094510096,0.2201729457562212,0.05437695540855899,0.1272024218129845,0.038112037962514486,0.08354847344949681,0.0005292008961815967,0.0019422412747656104
46.84479198683409,16.84328951552845,0.016169765349907956,0.04099570387457648,0.004766824495529129,0.02606674727173929,0.08388430094510096,0.2201729457562212,0.05437695540855899,0.1272024218129845,0.038112037962514486,0.08354847344949681,0.0005292008961815967,0.0019422412747656104
46.84475701136155,16.84327823262081,0.023714822983831214,0.0274989153662586,0.007487780912661629,0.005113592953923656,0.03183720037493515,0.0798582791161681,0.02777498987808913,0.041229533685143205,0.05585523374352826,0.06821698443158901,0.001488754698887539,0.001982644669869002
46.84472833342112,16.84326886949818,0.023714822983831214,0.0274989153662586,0.007487780912661629,0.005113592953923656,0.03183720037493515,0.0798582791161681,0.02777498987808913,0.041229533685143205,0.05585523374352826,0.06821698443158901,0.001488754698887539,0.001982644669869002
46.84469371109338,16.843258513649555,0.023714822983831214,0.0274989153662586,0.007487780912661629,0.005113592953923656,0.03183720037493515,0.0798582791161681,0.02777498987808913,0.041229533685143205,0.05585523374352826,0.06821698443158901,0.001488754698887539,0.001982644669869002
46.84466405537155,16.843250484143503,0.023714822983831214,0.0274989153662586,0.007487780912661629,0.005113592953923656,0.03183720037493515,0.0798582791161681,0.02777498987808913,0.041229533685143205,0.05585523374352826,0.06821698443158901,0.001488754698887539,0.001982644669869002
46.84462976713828,16.84324144990935,0.023714822983831214,0.0274989153662586,0.007487780912661629,0.005113592953923656,0.03183720037493515,0.0798582791161681,0.02777498987808913,0.041229533685143205,0.05585523374352826,0.06821698443158901,0.001488754698887539,0.001982644669869002
46.844586974874254,16.843229444198588,0.026783783045242232,0.06541295755105522,0.01792498215737009,0.051034185344783906,0.08254777411602807,0.13780108665478435,0.05030863962199913,0.0909056771194766,0.0667682019403648,0.1615508279371779,0.0009561414291333878,0.0021880253458317687
46.844564223576555,16.843222339549264,0.026783783045242232,0.06541295755105522,0.01792498215737009,0.051034185344783906,0.08254777411602807,0.13780108665478435,0.05030863962199913,0.0909056771194766,0.0667682019403648,0.1615508279371779,0.0009561414291333878,0.0021880253458317687
46.84451556967588,16.84320080433838,0.026783783045242232,0.06541295755105522,0.01792498215737009,0.051034185344783906,0.08254777411602807,0.13780108665478435,0.05030863962199913,0.0909056771194766,0.0667682019403648,0.1615508279371779,0.0009561414291333878,0.0021880253458317687
46.84448036705153,16.84318120185694,0.026783783045242232,0.06541295755105522,0.01792498215737009,0.051034185344783906,0.08254777411602807,0.13780108665478435,0.05030863962199913,0.0909056771194766,0.0667682019403648,0.1615508279371779,0.0009561414291333878,0.0021880253458317687
46.844435313210504,16.8431664473452,0.026783783045242232,0.06541295755105522,0.01792498215737009,0.051034185344783906,0.08254777411602807,0.13780108665478435,0.05030863962199913,0.0909056771194766,0.0667682019403648,0.1615508279371779,0.0009561414291333878,0.0021880253458317687
46.844425210932364,16.843165532783228,0.006094730325212366,0.007415604086018369,0.0020267075459209087,0.01069023864482376,0.10053214039356045,0.04807034845555145,0.024427090447457934,0.040738385559726614,0.00556076544461338,0.0296064318844799,0.00022115741095750865,0.0007418420002326798
46.84438869684887,16.843161278338528,0.006094730325212366,0.007415604086018369,0.0020267075459209087,0.01069023864482376,0.10053214039356045,0.04807034845555145,0.024427090447457934,0.040738385559726614,0.00556076544461338,0.0296064318844799,0.00022115741095750865,0.0007418420002326798
46.844355076394464,16.843148921192494,0.006094730325212366,0.007415604086018369,0.0020267075459209087,0.01069023864482376,0.10053214039356045,0.04807034845555145,0.024427090447457934,0.040738385559726614,0.00556076544461338,0.0296064318844799,0.00022115741095750865,0.0007418420002326798
46.844314806132935,16.843121371352062,0.006094730325212366,0.007415604086018369,0.0020267075459209087,0.01069023864482376,0.10053214039356045,0.04807034845555145,0.024427090447457934,0.040738385559726614,0.00556076544461338,0.0296064318844799,0.00022115741095750865,0.0007418420002326798
46.844264182082284,16.84309420054338,0.006094730325212366,0.007415604086018369,0.0020267075459209087,0.01069023864482376,0.10053214039356045,0.04807034845555145,0.024427090447457934,0.040738385559726614,0.00556076544461338,0.0296064318844799,0.00022115741095750865,0.0007418420002326798
46.84422539209473,16.843080966840187,0.002954830702086262,0.012114920966794203,0.0786666125473526,0.03556579512920954,0.04602563244741579,0.0500429672729211,0.008063013837434404,0.016842591392180927,0.010139319748106439,0.030135952841517953,0.00023092607205337166,0.0006047883298881308
46.84417514776461,16.84306549422983,0.002954830702086262,0.012114920966794203,0.0786666125473526,0.03556579512920954,0.04602563244741579,0.0500429672729211,0.008063013837434404,0.016842591392180927,0.010139319748106439,0.030135952841517953,0.00023092607205337166,0.0006047883298881308
46.844127070070165,16.843051557437942,0.002954830702086262,0.012114920966794203,0.0786666125473526,0.03556579512920954,0.04602563244741579,0.0500429672729211,0.008063013837434404,0.016842591392180927,0.010139319748106439,0.030135952841517953,0.00023092607205337166,0.0006047883298881308
46.844034392139235,16.843026437531556,0.002954830702086262,0.012114920966794203,0.0786666125473526,0.03556579512920954,0.04602563244741579,0.0500429672729211,0.008063013837434404,0.016842591392180927,0.010139319748106439,0.030135952841517953,0.00023092607205337166,0.0006047883298881308
46.84398883096897,16.843016643429216,0.002954830702086262,0.012114920966794203,0.0786666125473526,0.03556579512920954,0.04602563244741579,0.0500429672729211,0.008063013837434404,0.016842591392180927,0.010139319748106439,0.030135952841517953,0.00023092607205337166,0.0006047883298881308
46.84397426967337,16.843016226891017,0.013185761604278545,0.023170876715993202,0.11634618239779287,0.081411021370346,0.01796026263939532,0.02825775879085983,0.048876955653743684,0.03311129010848319,0.05337959797519116,0.0793092644069246,0.0020065463072291186,0.0017253071038509228
46.84391890138556,16.843006598456657,0.013185761604278545,0.023170876715993202,0.11634618239779287,0.081411021370346,0.01796026263939532,0.02825775879085983,0.048876955653743684,0.03311129010848319,0.05337959797519116,0.0793092644069246,0.0020065463072291186,0.0017253071038509228
46.84385615764086,16.842991783082617,0.013185761604278545,0.023170876715993202,0.11634618239779287,0.081411021370346,0.01796026263939532,0.02825775879085983,0.048876955653743684,0.03311129010848319,0.05337959797519116,0.0793092644069246,0.0020065463072291186,0.0017253071038509228
46.84380033709332,16.842963574129957,0.013185761604278545,0.023170876715993202,0.11634618239779287,0.081411021370346,0.01796026263939532,0.02825775879085983,0.048876955653743684,0.03311129010848319,0.05337959797519116,0.0793092644069246,0.0020065463072291186,0.0017253071038509228
46.843756334723736,16.84293908905776,0.013185761604278545,0.023170876715993202,0.11634618239779287,0.081411021370346,0.01796026263939532,0.02825775879085983,0.048876955653743684,0.03311129010848319,0.05337959797519116,0.0793092644069246,0.0020065463072291186,0.0017253071038509228
46.84370069216022,16.842918109183568,0.013185761604278545,0.023170876715993202,0.11634618239779287,0.081411021370346,0.01796026263939532,0.02825775879085983,0.048876955653743684,0.03311129010848319,0.05337959797519116,0.0793092644069246,0.0020065463072291186,0.0017253071038509228
46.84363727305278,16.84289248042012,0.013185761604278545,0.023170876715993202,0.11634618239779287,0.081411021370346,0.01796026263939532,0.02825775879085983,0.048876955653743684,0.03311129010848319,0.05337959797519116,0.0793092644069246,0.0020065463072291186,0.0017253071038509228
46.84357615844333,16.842864913409556,0.013185761604278545,0.023170876715993202,0.11634618239779287,0.081411021370346,0.01796026263939532,0.02825775879085983,0.048876955653743684,0.03311129010848319,0.05337959797519116,0.0793092644069246,0.0020065463072291186,0.0017253071038509228
46.84352785435071,16.842843893768787,0.013185761604278545,0.023170876715993202,0.11634618239779287,0.081411021370346,0.01796026263939532,0.02825775879085983,0.048876955653743684,0.03311129010848319,0.05337959797519116,0.0793092644069246,0.0020065463072291186,0.0017253071038509228
46.84349084221832,16.84282911259734,0.013185761604278545,0.023170876715993202,0.11634618239779287,0.081411021370346,0.01796026263939532,0.02825775879085983,0.048876955653743684,0.03311129010848319,0.05337959797519116,0.0793092644069246,0.0020065463072291186,0.0017253071038509228
46.84344611666961,16.842810914274285,0.02268234693334298,0.02887092173563453,0.026350941318741997,0.0204930775811733,0.07877320285609198,0.08630465552997398,0.02689469228812316,0.05425267810782334,0.05012950163280816,0.0746009197401673,0.0008460164875928419,0.0017412050897610758
46.84342260323314,16.842801202707047,0.02268234693334298,0.02887092173563453,0.026350941318741997,0.0204930775811733,0.07877320285609198,0.08630465552997398,0.02689469228812316,0.05425267810782334,0.05012950163280816,0.0746009197401673,0.0008460164875928419,0.0017412050897610758
46.843379780981444,16.842779513620226,0.02268234693334298,0.02887092173563453,0.026350941318741997,0.0204930775811733,0.07877320285609198,0.08630465552997398,0.02689469228812316,0.05425267810782334,0.05012950163280816,0.0746009197401673,0.0008460164875928419,0.0017412050897610758
46.8433477074713,16.842757735478276,0.02268234693334298,0.02887092173563453,0.026350941318741997,0.0204930775811733,0.07877320285609198,0.08630465552997398,0.02689469228812316,0.05425267810782334,0.05012950163280816,0.0746009197401673,0.0008460164875928419,0.0017412050897610758
46.8433185266338,16.842734236934472,0.02268234693334298,0.02887092173563453,0.026350941318741997,0.0204930775811733,0.07877320285609198,0.08630465552997398,0.02689469228812316,0.05425267810782334,0.05012950163280816,0.0746009197401673,0.0008460164875928419,0.0017412050897610758
46.84329031218336,16.84271397339773,0.02268234693334298,0.02887092173563453,0.026350941318741997,0.0204930775811733,0.07877320285609198,0.08630465552997398,0.02689469228812316,0.05425267810782334,0.05012950163280816,0.0746009197401673,0.0008460164875928419,0.0017412050897610758
46.843256663927065,16.842694245617707,0.02268234693334298,0.02887092173563453,0.026350941318741997,0.0204930775811733,0.07877320285609198,0.08630465552997398,0.02689469228812316,0.05425267810782334,0.05012950163280816,0.0746009197401673,0.0008460164875928419,0.0017412050897610758
46.8432259493418,16.842679650977093,0.02268234693334298,0.02887092173563453,0.026350941318741997,0.0204930775811733,0.07877320285609198,0.08630465552997398,0.02689469228812316,0.05425267810782334,0.05012950163280816,0.0746009197401673,0.0008460164875928419,0.0017412050897610758
46.84319637512722,16.842666155801837,0.02268234693334298,0.02887092173563453,0.026350941318741997,0.0204930775811733,0.07877320285609198,0.08630465552997398,0.02689469228812316,0.05425267810782334,0.05012950163280816,0.0746009197401673,0.0008460164875928419,0.0017412050897610758
46.84316125406227,16.842650384119366,0.02268234693334298,0.02887092173563453,0.026350941318741997,0.0204930775811733,0.07877320285609198,0.08630465552997398,0.02689469228812316,0.05425267810782334,0.05012950163280816,0.0746009197401673,0.0008460164875928419,0.0017412050897610758
46.84311843920764,16.84263152307891,0.02268234693334298,0.02887092173563453,0.026350941318741997,0.0204930775811733,0.07877320285609198,0.08630465552997398,0.02689469228812316,0.05425267810782334,0.05012950163280816,0.0746009197401673,0.0008460164875928419,0.0017412050897610758
46.8430958346807,16.842621736281227,0.02268234693334298,0.02887092173563453,0.026350941318741997,0.0204930775811733,0.07877320285609198,0.08630465552997398,0.02689469228812316,0.05425267810782334,0.05012950163280816,0.0746009197401673,0.0008460164875928419,0.0017412050897610758
46.843060375990355,16.842606600978126,0.02268234693334298,0.02887092173563453,0.026350941318741997,0.0204930775811733,0.07877320285609198,0.08630465552997398,0.02689469228812316,0.05425267810782334,0.05012950163280816,0.0746009197401673,0.0008460164875928419,0.0017412050897610758
46.843038104840375,16.84259699759716,0.02268234693334298,0.02887092173563453,0.026350941318741997,0.0204930775811733,0.07877320285609198,0.08630465552997398,0.02689469228812316,0.05425267810782334,0.05012950163280816,0.0746009197401673,0.0008460164875928419,0.0017412050897610758
46.843001043509574,16.84257994939061,0.02268234693334298,0.02887092173563453,0.026350941318741997,0.0204930775811733,0.07877320285609198,0.08630465552997398,0.02689469228812316,0.05425267810782334,0.05012950163280816,0.0746009197401673,0.0008460164875928419,0.0017412050897610758
46.84296698403851,16.842563165513216,0.02897496120437722,0.011370831241894749,0.026665108787092547,0.0028733373094992037,0.040435860463829305,0.03830936973827037,0.07094069371173298,0.09041151624544529,0.07052844153298153,0.039055458553037666,0.0004008201893952361,0.0008455042752455815
46.84292684053122,16.842543653106773,0.02897496120437722,0.011370831241894749,0.026665108787092547,0.0028733373094992037,0.040435860463829305,0.03830936973827037,0.07094069371173298,0.09041151624544529,0.07052844153298153,0.039055458553037666,0.0004008201893952361,0.0008455042752455815
46.842888496747356,16.84252606949237,0.02897496120437722,0.011370831241894749,0.026665108787092547,0.0028733373094992037,0.040435860463829305,0.03830936973827037,0.07094069371173298,0.09041151624544529,0.07052844153298153,0.039055458553037666,0.0004008201893952361,0.0008455042752455815
46.842832916268435,16.84249980163655,0.02897496120437722,0.011370831241894749,0.026665108787092547,0.0028733373094992037,0.040435860463829305,0.03830936973827037,0.07094069371173298,0.09041151624544529,0.07052844153298153,0.039055458553037666,0.0004008201893952361,0.0008455042752455815
46.84279135981021,16.842478474866112,0.02897496120437722,0.011370831241894749,0.026665108787092547,0.0028733373094992037,0.040435860463829305,0.03830936973827037,0.07094069371173298,0.09041151624544529,0.07052844153298153,0.039055458553037666,0.0004008201893952361,0.0008455042752455815
46.84273533494156,16.84244794141186,0.010195635072905237,0.01274128812983443,0.03238495099801343,0.037891365939016076,0.01759247720909641,0.02982835481076608,0.01700306843559977,0.0320192989332854,0.031132744761739058,0.034849537839375305,0.0017015501168086355,0.0015083760390675125
46.84267326099968,16.84241597726426,0.010195635072905237,0.01274128812983443,0.03238495099801343,0.037891365939016076,0.01759247720909641,0.02982835481076608,0.01700306843559977,0.0320192989332854,0.031132744761739058,0.034849537839375305,0.0017015501168086355,0.0015083760390675125
46.84262572880325,16.842392720146773,0.010195635072905237,0.01274128812983443,0.03238495099801343,0.037891365939016076,0.01759247720909641,0.02982835481076608,0.01700306843559977,0.0320192989332854,0.031132744761739058,0.034849537839375305,0.0017015501168086355,0.0015083760390675125
46.84257613550286,16.842366595443078,0.010195635072905237,0.01274128812983443,0.03238495099801343,0.037891365939016076,0.01759247720909641,0.02982835481076608,0.01700306843559977,0.0320192989332854,0.031132744761739058,0.034849537839375305,0.0017015501168086355,0.0015083760390675125
46.84252681351519,16.842339580094244,0.010195635072905237,0.01274128812983443,0.03238495099801343,0.037891365939016076,0.01759247720909641,0.02982835481076608,0.01700306843559977,0.0320192989332854,0.031132744761739058,0.034849537839375305,0.0017015501168086355,0.0015083760390675125
46.84248236078867,16.842316302890573,0.010195635072905237,0.01274128812983443,0.03238495099801343,0.037891365939016076,0.01759247720909641,0.02982835481076608,0.01700306843559977,0.0320192989332854,0.031132744761739058,0.034849537839375305,0.0017015501168086355,0.0015083760390675125
46.842428500071755,16.84228913576568,0.010195635072905237,0.01274128812983443,0.03238495099801343,0.037891365939016076,0.01759247720909641,0.02982835481076608,0.01700306843559977,0.0320192989332854,0.031132744761739058,0.034849537839375305,0.0017015501168086355,0.0015083760390675125
46.84238911690714,16.84226933964965,0.010195635072905237,0.01274128812983443,0.03238495099801343,0.037891365939016076,0.01759247720909641,0.02982835481076608,0.01700306843559977,0.0320192989332854,0.031132744761739058,0.034849537839375305,0.0017015501168086355,0.0015083760390675125
46.84232863708319,16.842238665821995,0.010195635072905237,0.01274128812983443,0.03238495099801343,0.037891365939016076,0.01759247720909641,0.02982835481076608,0.01700306843559977,0.0320192989332854,0.031132744761739058,0.034849537839375305,0.0017015501168086355,0.0015083760390675125
46.842285610254315,16.842216645006285,0.010195635072905237,0.01274128812983443,0.03238495099801343,0.037891365939016076,0.01759247720909641,0.02982835481076608,0.01700306843559977,0.0320192989332854,0.031132744761739058,0.034849537839375305,0.0017015501168086355,0.0015083760390675125
46.842216433686346,16.842180613156273,0.010195635072905237,0.01274128812983443,0.03238495099801343,0.037891365939016076,0.01759247720909641,0.02982835481076608,0.01700306843559977,0.0320192989332854,0.031132744761739058,0.034849537839375305,0.0017015501168086355,0.0015083760390675125
46.84216297322058,16.84215233597016,0.010195635072905237,0.01274128812983443,0.03238495099801343,0.037891365939016076,0.01759247720909641,0.02982835481076608,0.01700306843559977,0.0320192989332854,0.031132744761739058,0.034849537839375305,0.0017015501168086355,0.0015083760390675125
46.842099544581174,16.84212037032868,0.010195635072905237,0.01274128812983443,0.03238495099801343,0.037891365939016076,0.01759247720909641,0.02982835481076608,0.01700306843559977,0.0320192989332854,0.031132744761739058,0.034849537839375305,0.0017015501168086355,0.0015083760390675125
46.84204948201365,16.84209449211093,0.010195635072905237,0.01274128812983443,0.03238495099801343,0.037891365939016076,0.01759247720909641,0.02982835481076608,0.01700306843559977,0.0320192989332854,0.031132744761739058,0.034849537839375305,0.0017015501168086355,0.0015083760390675125
46.841981741036186,16.842059408218727,0.010195635072905237,0.01274128812983443,0.03238495099801343,0.037891365939016076,0.01759247720909641,0.02982835481076608,0.01700306843559977,0.0320192989332854,0.031132744761739058,0.034849537839375305,0.0017015501168086355,0.0015083760390675125
46.841933846998224,16.84203295975757,0.0011865743473091395,0.0018081953867821099,0.041557102647724525,0.03399737421602781,0.0019600771879662365,0.005071401546246315,0.001923920252489102,0.001384747461941913,0.0010628323552151764,0.003485306484239918,0.0010597520743118437,0.0003169817645708568
46.8419277827147,16.842021863800074,0.0011865743473091395,0.0018081953867821099,0.041557102647724525,0.03399737421602781,0.0019600771879662365,0.005071401546246315,0.001923920252489102,0.001384747461941913,0.0010628323552151764,0.003485306484239918,0.0010597520743118437,0.0003169817645708568
