lat,lon,std_acc_x,median_acc_x,std_acc_y,median_acc_y,std_acc_z,median_acc_z,std_gyr_x,median_gyr_x,std_gyr_y,median_gyr_y,std_gyr_z,median_gyr_z
46.848405799476495,16.824902470854862,0.026406211182322295,0.03300321195994704,0.038333654985683606,0.04613646581487461,0.036877033860500986,0.11937206530750531,0.03534909922640516,0.09018369218714518,0.006420012186336326,0.03144888430370217,0.0006793501599407363,0.0030023563445485467
46.84848089867303,16.82470197170154,0.026406211182322295,0.03300321195994704,0.038333654985683606,0.04613646581487461,0.036877033860500986,0.11937206530750531,0.03534909922640516,0.09018369218714518,0.006420012186336326,0.03144888430370217,0.0006793501599407363,0.0030023563445485467
46.84852958745557,16.824603719277643,0.026406211182322295,0.03300321195994704,0.038333654985683606,0.04613646581487461,0.036877033860500986,0.11937206530750531,0.03534909922640516,0.09018369218714518,0.006420012186336326,0.03144888430370217,0.0006793501599407363,0.0030023563445485467
46.8485929746755,16.824464479223874,0.026406211182322295,0.03300321195994704,0.038333654985683606,0.04613646581487461,0.036877033860500986,0.11937206530750531,0.03534909922640516,0.09018369218714518,0.006420012186336326,0.03144888430370217,0.0006793501599407363,0.0030023563445485467
46.848669437295825,16.82425921896934,0.026406211182322295,0.03300321195994704,0.038333654985683606,0.04613646581487461,0.036877033860500986,0.11937206530750531,0.03534909922640516,0.09018369218714518,0.006420012186336326,0.03144888430370217,0.0006793501599407363,0.0030023563445485467
46.848763795643066,16.823992090207252,0.04841828950233922,0.038737676604646915,0.08059121349946893,0.19694399611915586,0.13205082964547152,0.10447306343606419,0.1846885482793427,0.13830896178516225,0.021853864403890505,0.038659892783086965,0.0010912020785000896,0.001226803815529972
46.848847680935215,16.823754073283183,0.04841828950233922,0.038737676604646915,0.08059121349946893,0.19694399611915586,0.13205082964547152,0.10447306343606419,0.1846885482793427,0.13830896178516225,0.021853864403890505,0.038659892783086965,0.0010912020785000896,0.001226803815529972
46.848886303589815,16.823652659274764,0.04841828950233922,0.038737676604646915,0.08059121349946893,0.19694399611915586,0.13205082964547152,0.10447306343606419,0.1846885482793427,0.13830896178516225,0.021853864403890505,0.038659892783086965,0.0010912020785000896,0.001226803815529972
46.848956231668254,16.823458823792457,0.04841828950233922,0.038737676604646915,0.08059121349946893,0.19694399611915586,0.13205082964547152,0.10447306343606419,0.1846885482793427,0.13830896178516225,0.021853864403890505,0.038659892783086965,0.0010912020785000896,0.001226803815529972
46.84903223212799,16.823242625065067,0.04841828950233922,0.038737676604646915,0.08059121349946893,0.19694399611915586,0.13205082964547152,0.10447306343606419,0.1846885482793427,0.13830896178516225,0.021853864403890505,0.038659892783086965,0.0010912020785000896,0.001226803815529972
46.84910721033374,16.82304461268134,0.04841828950233922,0.038737676604646915,0.08059121349946893,0.19694399611915586,0.13205082964547152,0.10447306343606419,0.1846885482793427,0.13830896178516225,0.021853864403890505,0.038659892783086965,0.0010912020785000896,0.001226803815529972
46.84917620524096,16.822851630703386,0.04841828950233922,0.038737676604646915,0.08059121349946893,0.19694399611915586,0.13205082964547152,0.10447306343606419,0.1846885482793427,0.13830896178516225,0.021853864403890505,0.038659892783086965,0.0010912020785000896,0.001226803815529972
46.84922914609729,16.82270402182411,0.04841828950233922,0.038737676604646915,0.08059121349946893,0.19694399611915586,0.13205082964547152,0.10447306343606419,0.1846885482793427,0.13830896178516225,0.021853864403890505,0.038659892783086965,0.0010912020785000896,0.001226803815529972
46.84929643497394,16.82251568149191,0.04841828950233922,0.038737676604646915,0.08059121349946893,0.19694399611915586,0.13205082964547152,0.10447306343606419,0.1846885482793427,0.13830896178516225,0.021853864403890505,0.038659892783086965,0.0010912020785000896,0.001226803815529972
46.84937226642449,16.822308829750465,0.04841828950233922,0.038737676604646915,0.08059121349946893,0.19694399611915586,0.13205082964547152,0.10447306343606419,0.1846885482793427,0.13830896178516225,0.021853864403890505,0.038659892783086965,0.0010912020785000896,0.001226803815529972
46.84943517668584,16.822140985975444,0.008230722768502475,0.016330294180014377,0.04076262174796568,0.06221331956130261,0.07238879546893559,0.09852540728956256,0.1571287641312267,0.10428309326855649,0.010592983626812004,0.013164011993134453,0.00035265157474512204,0.000950408529663147
46.84949613593994,16.821973795423556,0.008230722768502475,0.016330294180014377,0.04076262174796568,0.06221331956130261,0.07238879546893559,0.09852540728956256,0.1571287641312267,0.10428309326855649,0.010592983626812004,0.013164011993134453,0.00035265157474512204,0.000950408529663147
46.84956638604183,16.821768612338616,0.008230722768502475,0.016330294180014377,0.04076262174796568,0.06221331956130261,0.07238879546893559,0.09852540728956256,0.1571287641312267,0.10428309326855649,0.010592983626812004,0.013164011993134453,0.00035265157474512204,0.000950408529663147
46.84963016693099,16.821596749059985,0.008230722768502475,0.016330294180014377,0.04076262174796568,0.06221331956130261,0.07238879546893559,0.09852540728956256,0.1571287641312267,0.10428309326855649,0.010592983626812004,0.013164011993134453,0.00035265157474512204,0.000950408529663147
46.84968237558092,16.82145710888206,0.008230722768502475,0.016330294180014377,0.04076262174796568,0.06221331956130261,0.07238879546893559,0.09852540728956256,0.1571287641312267,0.10428309326855649,0.010592983626812004,0.013164011993134453,0.00035265157474512204,0.000950408529663147
46.84973113761011,16.821323004220226,0.008230722768502475,0.016330294180014377,0.04076262174796568,0.06221331956130261,0.07238879546893559,0.09852540728956256,0.1571287641312267,0.10428309326855649,0.010592983626812004,0.013164011993134453,0.00035265157474512204,0.000950408529663147
46.84980381227661,16.821133649843937,0.008230722768502475,0.016330294180014377,0.04076262174796568,0.06221331956130261,0.07238879546893559,0.09852540728956256,0.1571287641312267,0.10428309326855649,0.010592983626812004,0.013164011993134453,0.00035265157474512204,0.000950408529663147
46.849893923617415,16.82086952472824,0.008230722768502475,0.016330294180014377,0.04076262174796568,0.06221331956130261,0.07238879546893559,0.09852540728956256,0.1571287641312267,0.10428309326855649,0.010592983626812004,0.013164011993134453,0.00035265157474512204,0.000950408529663147
46.849951184093506,16.82070530304233,0.008230722768502475,0.016330294180014377,0.04076262174796568,0.06221331956130261,0.07238879546893559,0.09852540728956256,0.1571287641312267,0.10428309326855649,0.010592983626812004,0.013164011993134453,0.00035265157474512204,0.000950408529663147
46.85000293228596,16.820560317556016,0.008230722768502475,0.016330294180014377,0.04076262174796568,0.06221331956130261,0.07238879546893559,0.09852540728956256,0.1571287641312267,0.10428309326855649,0.010592983626812004,0.013164011993134453,0.00035265157474512204,0.000950408529663147
46.85005710147508,16.82041570963306,0.008230722768502475,0.016330294180014377,0.04076262174796568,0.06221331956130261,0.07238879546893559,0.09852540728956256,0.1571287641312267,0.10428309326855649,0.010592983626812004,0.013164011993134453,0.00035265157474512204,0.000950408529663147
46.850128957888934,16.820214187923604,0.008230722768502475,0.016330294180014377,0.04076262174796568,0.06221331956130261,0.07238879546893559,0.09852540728956256,0.1571287641312267,0.10428309326855649,0.010592983626812004,0.013164011993134453,0.00035265157474512204,0.000950408529663147
46.85019236622484,16.820035614404762,0.008230722768502475,0.016330294180014377,0.04076262174796568,0.06221331956130261,0.07238879546893559,0.09852540728956256,0.1571287641312267,0.10428309326855649,0.010592983626812004,0.013164011993134453,0.00035265157474512204,0.000950408529663147
46.85027030781445,16.819824185557778,0.008230722768502475,0.016330294180014377,0.04076262174796568,0.06221331956130261,0.07238879546893559,0.09852540728956256,0.1571287641312267,0.10428309326855649,0.010592983626812004,0.013164011993134453,0.00035265157474512204,0.000950408529663147
46.850323522207056,16.819695730604835,0.008230722768502475,0.016330294180014377,0.04076262174796568,0.06221331956130261,0.07238879546893559,0.09852540728956256,0.1571287641312267,0.10428309326855649,0.010592983626812004,0.013164011993134453,0.00035265157474512204,0.000950408529663147
46.85037422939875,16.819564144230682,0.01945836346530819,0.026081576180558473,0.0650960286130392,0.05759565082105021,0.02729169691205975,0.050524147983777766,0.04562138370105968,0.08746114866342002,0.013272356936630276,0.014309068183090544,0.016343008267927655,0.0005181070741610811
46.850436047569715,16.819394635838606,0.01945836346530819,0.026081576180558473,0.0650960286130392,0.05759565082105021,0.02729169691205975,0.050524147983777766,0.04562138370105968,0.08746114866342002,0.013272356936630276,0.014309068183090544,0.016343008267927655,0.0005181070741610811
46.85050345348054,16.81922351623718,0.01945836346530819,0.026081576180558473,0.0650960286130392,0.05759565082105021,0.02729169691205975,0.050524147983777766,0.04562138370105968,0.08746114866342002,0.013272356936630276,0.014309068183090544,0.016343008267927655,0.0005181070741610811
46.85054518065736,16.819112249734204,0.01945836346530819,0.026081576180558473,0.0650960286130392,0.05759565082105021,0.02729169691205975,0.050524147983777766,0.04562138370105968,0.08746114866342002,0.013272356936630276,0.014309068183090544,0.016343008267927655,0.0005181070741610811
46.8505937263658,16.818976125007698,0.01945836346530819,0.026081576180558473,0.0650960286130392,0.05759565082105021,0.02729169691205975,0.050524147983777766,0.04562138370105968,0.08746114866342002,0.013272356936630276,0.014309068183090544,0.016343008267927655,0.0005181070741610811
46.85065861004878,16.818799357042973,0.01945836346530819,0.026081576180558473,0.0650960286130392,0.05759565082105021,0.02729169691205975,0.050524147983777766,0.04562138370105968,0.08746114866342002,0.013272356936630276,0.014309068183090544,0.016343008267927655,0.0005181070741610811
46.850739138245274,16.818589114282936,0.01945836346530819,0.026081576180558473,0.0650960286130392,0.05759565082105021,0.02729169691205975,0.050524147983777766,0.04562138370105968,0.08746114866342002,0.013272356936630276,0.014309068183090544,0.016343008267927655,0.0005181070741610811
46.850808445529296,16.818419884484644,0.01945836346530819,0.026081576180558473,0.0650960286130392,0.05759565082105021,0.02729169691205975,0.050524147983777766,0.04562138370105968,0.08746114866342002,0.013272356936630276,0.014309068183090544,0.016343008267927655,0.0005181070741610811
46.85086703372669,16.818303131576684,0.01945836346530819,0.026081576180558473,0.0650960286130392,0.05759565082105021,0.02729169691205975,0.050524147983777766,0.04562138370105968,0.08746114866342002,0.013272356936630276,0.014309068183090544,0.016343008267927655,0.0005181070741610811
46.85092088853455,16.818297011294494,0.01945836346530819,0.026081576180558473,0.0650960286130392,0.05759565082105021,0.02729169691205975,0.050524147983777766,0.04562138370105968,0.08746114866342002,0.013272356936630276,0.014309068183090544,0.016343008267927655,0.0005181070741610811
46.85097166916086,16.818360527994347,0.005915607352913502,0.02634759348325554,0.10183486712655879,0.2071206944495923,0.01654775820331519,0.06762858971799961,0.030484947994731913,0.05966232195309522,0.004256812315577036,0.016586291382586098,0.00023895956116446913,0.0012060309196410585
46.85103363038892,16.818547707775846,0.005915607352913502,0.02634759348325554,0.10183486712655879,0.2071206944495923,0.01654775820331519,0.06762858971799961,0.030484947994731913,0.05966232195309522,0.004256812315577036,0.016586291382586098,0.00023895956116446913,0.0012060309196410585
46.850989749245194,16.818954366898243,0.005915607352913502,0.02634759348325554,0.10183486712655879,0.2071206944495923,0.01654775820331519,0.06762858971799961,0.030484947994731913,0.05966232195309522,0.004256812315577036,0.016586291382586098,0.00023895956116446913,0.0012060309196410585
46.85093820218344,16.819228278868916,0.005915607352913502,0.02634759348325554,0.10183486712655879,0.2071206944495923,0.01654775820331519,0.06762858971799961,0.030484947994731913,0.05966232195309522,0.004256812315577036,0.016586291382586098,0.00023895956116446913,0.0012060309196410585
46.85086454255265,16.81959707720213,0.005915607352913502,0.02634759348325554,0.10183486712655879,0.2071206944495923,0.01654775820331519,0.06762858971799961,0.030484947994731913,0.05966232195309522,0.004256812315577036,0.016586291382586098,0.00023895956116446913,0.0012060309196410585
46.850783545273934,16.820032622191352,0.009208785188883902,0.012261560392803184,0.05143179698613489,0.1082641046058391,0.018560637063738696,0.038799572426234476,0.03554287907428632,0.021826329059070143,0.002284706440508259,0.009209832308380466,0.00012901894110433582,0.0009921322055834124
46.85072073075204,16.82039426305255,0.009208785188883902,0.012261560392803184,0.05143179698613489,0.1082641046058391,0.018560637063738696,0.038799572426234476,0.03554287907428632,0.021826329059070143,0.002284706440508259,0.009209832308380466,0.00012901894110433582,0.0009921322055834124
46.850653215538046,16.82078530650905,0.009208785188883902,0.012261560392803184,0.05143179698613489,0.1082641046058391,0.018560637063738696,0.038799572426234476,0.03554287907428632,0.021826329059070143,0.002284706440508259,0.009209832308380466,0.00012901894110433582,0.0009921322055834124
46.850566109262665,16.821282531788988,0.009208785188883902,0.012261560392803184,0.05143179698613489,0.1082641046058391,0.018560637063738696,0.038799572426234476,0.03554287907428632,0.021826329059070143,0.002284706440508259,0.009209832308380466,0.00012901894110433582,0.0009921322055834124
46.85048886190728,16.82170326756112,0.009208785188883902,0.012261560392803184,0.05143179698613489,0.1082641046058391,0.018560637063738696,0.038799572426234476,0.03554287907428632,0.021826329059070143,0.002284706440508259,0.009209832308380466,0.00012901894110433582,0.0009921322055834124
46.850430428432475,16.82202852904915,0.027161466376544107,0.03601803365255825,0.003234781550577335,0.01959432898704808,0.04625307843910422,0.15747202731855647,0.15098861948186743,0.12356513800426526,0.003159747942814664,0.011872315245970703,0.006578747671425721,0.003704156610584159
46.85035406417004,16.822490939384416,0.027161466376544107,0.03601803365255825,0.003234781550577335,0.01959432898704808,0.04625307843910422,0.15747202731855647,0.15098861948186743,0.12356513800426526,0.003159747942814664,0.011872315245970703,0.006578747671425721,0.003704156610584159
46.85027231826961,16.823021201793768,0.027161466376544107,0.03601803365255825,0.003234781550577335,0.01959432898704808,0.04625307843910422,0.15747202731855647,0.15098861948186743,0.12356513800426526,0.003159747942814664,0.011872315245970703,0.006578747671425721,0.003704156610584159
46.850206839595124,16.82341669374307,0.027161466376544107,0.03601803365255825,0.003234781550577335,0.01959432898704808,0.04625307843910422,0.15747202731855647,0.15098861948186743,0.12356513800426526,0.003159747942814664,0.011872315245970703,0.006578747671425721,0.003704156610584159
46.850139890449945,16.823882483121423,0.027161466376544107,0.03601803365255825,0.003234781550577335,0.01959432898704808,0.04625307843910422,0.15747202731855647,0.15098861948186743,0.12356513800426526,0.003159747942814664,0.011872315245970703,0.006578747671425721,0.003704156610584159
46.85007561291504,16.824299859518163,0.006600470217698587,0.019957239211800825,0.009462824774138975,0.02593065682945981,0.040466959365877984,0.08469083135389904,0.029499276071649757,0.06590056689255064,0.002184396918387341,0.010083577020399005,0.001099307875650045,0.0009308873356562691
46.85000110089198,16.824783892447645,0.006600470217698587,0.019957239211800825,0.009462824774138975,0.02593065682945981,0.040466959365877984,0.08469083135389904,0.029499276071649757,0.06590056689255064,0.002184396918387341,0.010083577020399005,0.001099307875650045,0.0009308873356562691
46.84991661179597,16.825287915834917,0.006600470217698587,0.019957239211800825,0.009462824774138975,0.02593065682945981,0.040466959365877984,0.08469083135389904,0.029499276071649757,0.06590056689255064,0.002184396918387341,0.010083577020399005,0.001099307875650045,0.0009308873356562691
46.84984058589724,16.825604359679406,0.006600470217698587,0.019957239211800825,0.009462824774138975,0.02593065682945981,0.040466959365877984,0.08469083135389904,0.029499276071649757,0.06590056689255064,0.002184396918387341,0.010083577020399005,0.001099307875650045,0.0009308873356562691
46.849751468782635,16.826089082038784,0.006600470217698587,0.019957239211800825,0.009462824774138975,0.02593065682945981,0.040466959365877984,0.08469083135389904,0.029499276071649757,0.06590056689255064,0.002184396918387341,0.010083577020399005,0.001099307875650045,0.0009308873356562691
46.8496985383988,16.82637564983235,0.006600470217698587,0.019957239211800825,0.009462824774138975,0.02593065682945981,0.040466959365877984,0.08469083135389904,0.029499276071649757,0.06590056689255064,0.002184396918387341,0.010083577020399005,0.001099307875650045,0.0009308873356562691
46.84964364291912,16.826664150085527,0.006600470217698587,0.019957239211800825,0.009462824774138975,0.02593065682945981,0.040466959365877984,0.08469083135389904,0.029499276071649757,0.06590056689255064,0.002184396918387341,0.010083577020399005,0.001099307875650045,0.0009308873356562691
46.849580944460946,16.82699800418125,0.006600470217698587,0.019957239211800825,0.009462824774138975,0.02593065682945981,0.040466959365877984,0.08469083135389904,0.029499276071649757,0.06590056689255064,0.002184396918387341,0.010083577020399005,0.001099307875650045,0.0009308873356562691
46.84952367763354,16.82728997622672,0.006600470217698587,0.019957239211800825,0.009462824774138975,0.02593065682945981,0.040466959365877984,0.08469083135389904,0.029499276071649757,0.06590056689255064,0.002184396918387341,0.010083577020399005,0.001099307875650045,0.0009308873356562691
46.84943617365363,16.82776043810608,0.006600470217698587,0.019957239211800825,0.009462824774138975,0.02593065682945981,0.040466959365877984,0.08469083135389904,0.029499276071649757,0.06590056689255064,0.002184396918387341,0.010083577020399005,0.001099307875650045,0.0009308873356562691
46.8493638441739,16.82816541961658,0.010121840035358078,0.026201682028669324,0.005351311776494283,0.01503972680851679,0.01007374588026242,0.06691024042256764,0.04003491053853632,0.10181417842915638,0.00536022362907212,0.009906062110370763,0.001367174560116913,0.0024134460190358953
46.849279185575114,16.82862601688903,0.010121840035358078,0.026201682028669324,0.005351311776494283,0.01503972680851679,0.01007374588026242,0.06691024042256764,0.04003491053853632,0.10181417842915638,0.00536022362907212,0.009906062110370763,0.001367174560116913,0.0024134460190358953
46.84919588499518,16.829130974423247,0.010121840035358078,0.026201682028669324,0.005351311776494283,0.01503972680851679,0.01007374588026242,0.06691024042256764,0.04003491053853632,0.10181417842915638,0.00536022362907212,0.009906062110370763,0.001367174560116913,0.0024134460190358953
46.84911426126003,16.829610732246447,0.010121840035358078,0.026201682028669324,0.005351311776494283,0.01503972680851679,0.01007374588026242,0.06691024042256764,0.04003491053853632,0.10181417842915638,0.00536022362907212,0.009906062110370763,0.001367174560116913,0.0024134460190358953
46.84905075554106,16.829970131549214,0.010121840035358078,0.026201682028669324,0.005351311776494283,0.01503972680851679,0.01007374588026242,0.06691024042256764,0.04003491053853632,0.10181417842915638,0.00536022362907212,0.009906062110370763,0.001367174560116913,0.0024134460190358953
46.84899944414602,16.83020693776686,0.006875229447597896,0.01171614304660502,0.006665955470735932,0.035493623182429226,0.08289233196431878,0.12585791113112815,0.005834062280661031,0.0374905958866094,0.002275644004073837,0.008785382823345303,0.00031130793199826397,0.0009704984283702387
46.84893859385647,16.830452984865325,0.006875229447597896,0.01171614304660502,0.006665955470735932,0.035493623182429226,0.08289233196431878,0.12585791113112815,0.005834062280661031,0.0374905958866094,0.002275644004073837,0.008785382823345303,0.00031130793199826397,0.0009704984283702387
46.84885015811476,16.8308934056906,0.006875229447597896,0.01171614304660502,0.006665955470735932,0.035493623182429226,0.08289233196431878,0.12585791113112815,0.005834062280661031,0.0374905958866094,0.002275644004073837,0.008785382823345303,0.00031130793199826397,0.0009704984283702387
46.848773514023875,16.831273016797237,0.006875229447597896,0.01171614304660502,0.006665955470735932,0.035493623182429226,0.08289233196431878,0.12585791113112815,0.005834062280661031,0.0374905958866094,0.002275644004073837,0.008785382823345303,0.00031130793199826397,0.0009704984283702387
46.84872031263598,16.831519745124858,0.006875229447597896,0.01171614304660502,0.006665955470735932,0.035493623182429226,0.08289233196431878,0.12585791113112815,0.005834062280661031,0.0374905958866094,0.002275644004073837,0.008785382823345303,0.00031130793199826397,0.0009704984283702387
46.84865375585565,16.83183079064344,0.003361343483518904,0.017161077220542716,0.01349579447971878,0.030509611698097037,0.00960215865846128,0.05134981744639263,0.009851401380975823,0.04962999820598857,0.002790195089108584,0.007827597030782929,0.0012886485361860449,0.0006621371584916798
46.84857972757529,16.832159482617644,0.003361343483518904,0.017161077220542716,0.01349579447971878,0.030509611698097037,0.00960215865846128,0.05134981744639263,0.009851401380975823,0.04962999820598857,0.002790195089108584,0.007827597030782929,0.0012886485361860449,0.0006621371584916798
46.84849838651532,16.832527552357284,0.003361343483518904,0.017161077220542716,0.01349579447971878,0.030509611698097037,0.00960215865846128,0.05134981744639263,0.009851401380975823,0.04962999820598857,0.002790195089108584,0.007827597030782929,0.0012886485361860449,0.0006621371584916798
46.848440764799854,16.832767887156773,0.003361343483518904,0.017161077220542716,0.01349579447971878,0.030509611698097037,0.00960215865846128,0.05134981744639263,0.009851401380975823,0.04962999820598857,0.002790195089108584,0.007827597030782929,0.0012886485361860449,0.0006621371584916798
46.84837616083678,16.833026254446555,0.003361343483518904,0.017161077220542716,0.01349579447971878,0.030509611698097037,0.00960215865846128,0.05134981744639263,0.009851401380975823,0.04962999820598857,0.002790195089108584,0.007827597030782929,0.0012886485361860449,0.0006621371584916798
46.84830511875739,16.833285005292126,0.04696680204619074,0.10409444506001295,0.006229258518859095,0.017348774533275192,0.038650738116738824,0.06473462267458949,0.0771579832882117,0.13742567973979497,0.0063399180044130705,0.013790502367320304,0.017063150766854624,0.027682230895628022
46.84824837627967,16.83348373333839,0.04696680204619074,0.10409444506001295,0.006229258518859095,0.017348774533275192,0.038650738116738824,0.06473462267458949,0.0771579832882117,0.13742567973979497,0.0063399180044130705,0.013790502367320304,0.017063150766854624,0.027682230895628022
46.84819456760271,16.83368047260863,0.04696680204619074,0.10409444506001295,0.006229258518859095,0.017348774533275192,0.038650738116738824,0.06473462267458949,0.0771579832882117,0.13742567973979497,0.0063399180044130705,0.013790502367320304,0.017063150766854624,0.027682230895628022
46.84811434660335,16.834114492960136,0.04696680204619074,0.10409444506001295,0.006229258518859095,0.017348774533275192,0.038650738116738824,0.06473462267458949,0.0771579832882117,0.13742567973979497,0.0063399180044130705,0.013790502367320304,0.017063150766854624,0.027682230895628022
46.848064747537684,16.83471184976099,0.04696680204619074,0.10409444506001295,0.006229258518859095,0.017348774533275192,0.038650738116738824,0.06473462267458949,0.0771579832882117,0.13742567973979497,0.0063399180044130705,0.013790502367320304,0.017063150766854624,0.027682230895628022
46.84805162911918,16.835345293112507,0.037778649235895134,0.061560997798387536,0.011084532607288014,0.024925039205600786,0.04624570872365675,0.28350122113991055,0.03766884710664583,0.36119616354363604,0.022359434921769263,0.04820767101203002,0.003841749544134573,0.007061795220107691
46.848089622649404,16.835798677457586,0.037778649235895134,0.061560997798387536,0.011084532607288014,0.024925039205600786,0.04624570872365675,0.28350122113991055,0.03766884710664583,0.36119616354363604,0.022359434921769263,0.04820767101203002,0.003841749544134573,0.007061795220107691
46.8481285676147,16.83613245815451,0.037778649235895134,0.061560997798387536,0.011084532607288014,0.024925039205600786,0.04624570872365675,0.28350122113991055,0.03766884710664583,0.36119616354363604,0.022359434921769263,0.04820767101203002,0.003841749544134573,0.007061795220107691
46.84817669641415,16.836503225481895,0.037778649235895134,0.061560997798387536,0.011084532607288014,0.024925039205600786,0.04624570872365675,0.28350122113991055,0.03766884710664583,0.36119616354363604,0.022359434921769263,0.04820767101203002,0.003841749544134573,0.007061795220107691
46.84822416535052,16.837048412443714,0.037778649235895134,0.061560997798387536,0.011084532607288014,0.024925039205600786,0.04624570872365675,0.28350122113991055,0.03766884710664583,0.36119616354363604,0.022359434921769263,0.04820767101203002,0.003841749544134573,0.007061795220107691
46.84829232760967,16.837556686847023,0.01782188599787243,0.023661757832257716,0.016716213459484413,0.03124254242314489,0.11026959106376737,0.10013478511970705,0.07757838204563593,0.0554936418194562,0.01437996078345846,0.007816951580709643,0.0015383714093791677,0.0013465889337817998
46.84836442497484,16.838086296801492,0.01782188599787243,0.023661757832257716,0.016716213459484413,0.03124254242314489,0.11026959106376737,0.10013478511970705,0.07757838204563593,0.0554936418194562,0.01437996078345846,0.007816951580709643,0.0015383714093791677,0.0013465889337817998
46.848421553951496,16.83853653062172,0.01782188599787243,0.023661757832257716,0.016716213459484413,0.03124254242314489,0.11026959106376737,0.10013478511970705,0.07757838204563593,0.0554936418194562,0.01437996078345846,0.007816951580709643,0.0015383714093791677,0.0013465889337817998
46.84847210399902,16.839048749937042,0.01782188599787243,0.023661757832257716,0.016716213459484413,0.03124254242314489,0.11026959106376737,0.10013478511970705,0.07757838204563593,0.0554936418194562,0.01437996078345846,0.007816951580709643,0.0015383714093791677,0.0013465889337817998
46.84853994860948,16.83959520928448,0.01782188599787243,0.023661757832257716,0.016716213459484413,0.03124254242314489,0.11026959106376737,0.10013478511970705,0.07757838204563593,0.0554936418194562,0.01437996078345846,0.007816951580709643,0.0015383714093791677,0.0013465889337817998
46.84860842896266,16.840146539314013,0.052807674053398895,0.02634759348325554,0.030807674706770666,0.04105289244436725,0.029049550648556806,0.08528191008687525,0.04501440362583763,0.10209807544460084,0.009515368530300676,0.01659767899218347,0.041425993008118854,0.0012060309196410585
46.84867399178658,16.840645612247855,0.052807674053398895,0.02634759348325554,0.030807674706770666,0.04105289244436725,0.029049550648556806,0.08528191008687525,0.04501440362583763,0.10209807544460084,0.009515368530300676,0.01659767899218347,0.041425993008118854,0.0012060309196410585
46.84873056697856,16.841061298091784,0.052807674053398895,0.02634759348325554,0.030807674706770666,0.04105289244436725,0.029049550648556806,0.08528191008687525,0.04501440362583763,0.10209807544460084,0.009515368530300676,0.01659767899218347,0.041425993008118854,0.0012060309196410585
46.84878417042215,16.84147093959061,0.052807674053398895,0.02634759348325554,0.030807674706770666,0.04105289244436725,0.029049550648556806,0.08528191008687525,0.04501440362583763,0.10209807544460084,0.009515368530300676,0.01659767899218347,0.041425993008118854,0.0012060309196410585
46.84885067831179,16.842087469264467,0.052807674053398895,0.02634759348325554,0.030807674706770666,0.04105289244436725,0.029049550648556806,0.08528191008687525,0.04501440362583763,0.10209807544460084,0.009515368530300676,0.01659767899218347,0.041425993008118854,0.0012060309196410585
46.8489295428168,16.84265203116822,0.052807674053398895,0.02634759348325554,0.030807674706770666,0.04105289244436725,0.029049550648556806,0.08528191008687525,0.04501440362583763,0.10209807544460084,0.009515368530300676,0.01659767899218347,0.041425993008118854,0.0012060309196410585
46.848982536581154,16.843157029410506,0.052807674053398895,0.02634759348325554,0.030807674706770666,0.04105289244436725,0.029049550648556806,0.08528191008687525,0.04501440362583763,0.10209807544460084,0.009515368530300676,0.01659767899218347,0.041425993008118854,0.0012060309196410585
46.84896783919366,16.84340185090805,0.052807674053398895,0.02634759348325554,0.030807674706770666,0.04105289244436725,0.029049550648556806,0.08528191008687525,0.04501440362583763,0.10209807544460084,0.009515368530300676,0.01659767899218347,0.041425993008118854,0.0012060309196410585
46.84889622213936,16.84349506648363,0.052807674053398895,0.02634759348325554,0.030807674706770666,0.04105289244436725,0.029049550648556806,0.08528191008687525,0.04501440362583763,0.10209807544460084,0.009515368530300676,0.01659767899218347,0.041425993008118854,0.0012060309196410585
46.848857456889334,16.843512668655347,0.052807674053398895,0.02634759348325554,0.030807674706770666,0.04105289244436725,0.029049550648556806,0.08528191008687525,0.04501440362583763,0.10209807544460084,0.009515368530300676,0.01659767899218347,0.041425993008118854,0.0012060309196410585
46.84882501591633,16.843519835161082,0.0634684517654882,0.11284822840148256,0.0020165293512350736,0.006526238704192527,0.011051904370020056,0.027935389455222535,0.02484219653238481,0.03522494530388478,0.004684982849517847,0.015067862749279475,0.028845216325780142,0.03188601203578554
46.84879403685645,16.843523227709465,0.0634684517654882,0.11284822840148256,0.0020165293512350736,0.006526238704192527,0.011051904370020056,0.027935389455222535,0.02484219653238481,0.03522494530388478,0.004684982849517847,0.015067862749279475,0.028845216325780142,0.03188601203578554
46.84875607632189,16.843523773155578,0.0634684517654882,0.11284822840148256,0.0020165293512350736,0.006526238704192527,0.011051904370020056,0.027935389455222535,0.02484219653238481,0.03522494530388478,0.004684982849517847,0.015067862749279475,0.028845216325780142,0.03188601203578554
46.84872723521268,16.843523004636257,0.0634684517654882,0.11284822840148256,0.0020165293512350736,0.006526238704192527,0.011051904370020056,0.027935389455222535,0.02484219653238481,0.03522494530388478,0.004684982849517847,0.015067862749279475,0.028845216325780142,0.03188601203578554
46.8486931932844,16.84352121959976,0.0634684517654882,0.11284822840148256,0.0020165293512350736,0.006526238704192527,0.011051904370020056,0.027935389455222535,0.02484219653238481,0.03522494530388478,0.004684982849517847,0.015067862749279475,0.028845216325780142,0.03188601203578554
46.8486554306484,16.843518727615375,0.040014247260048576,0.027268814444976256,0.01712637332568205,0.019496986953147777,0.24396551222993682,0.2544226665788663,0.09289757466804058,0.1518715140765256,0.04313621366199798,0.02387074213478641,0.0016836417300326357,0.0011127848338695996
46.84862950556653,16.84351716419469,0.040014247260048576,0.027268814444976256,0.01712637332568205,0.019496986953147777,0.24396551222993682,0.2544226665788663,0.09289757466804058,0.1518715140765256,0.04313621366199798,0.02387074213478641,0.0016836417300326357,0.0011127848338695996
46.84860438603589,16.84351575233621,0.040014247260048576,0.027268814444976256,0.01712637332568205,0.019496986953147777,0.24396551222993682,0.2544226665788663,0.09289757466804058,0.1518715140765256,0.04313621366199798,0.02387074213478641,0.0016836417300326357,0.0011127848338695996
46.848579849209315,16.843514481937373,0.040014247260048576,0.027268814444976256,0.01712637332568205,0.019496986953147777,0.24396551222993682,0.2544226665788663,0.09289757466804058,0.1518715140765256,0.04313621366199798,0.02387074213478641,0.0016836417300326357,0.0011127848338695996
46.84855274256546,16.843513259084165,0.040014247260048576,0.027268814444976256,0.01712637332568205,0.019496986953147777,0.24396551222993682,0.2544226665788663,0.09289757466804058,0.1518715140765256,0.04313621366199798,0.02387074213478641,0.0016836417300326357,0.0011127848338695996
46.848537172191975,16.843512622190364,0.040014247260048576,0.027268814444976256,0.01712637332568205,0.019496986953147777,0.24396551222993682,0.2544226665788663,0.09289757466804058,0.1518715140765256,0.04313621366199798,0.02387074213478641,0.0016836417300326357,0.0011127848338695996
46.84849784760127,16.843511339810593,0.040014247260048576,0.027268814444976256,0.01712637332568205,0.019496986953147777,0.24396551222993682,0.2544226665788663,0.09289757466804058,0.1518715140765256,0.04313621366199798,0.02387074213478641,0.0016836417300326357,0.0011127848338695996
46.84846797835651,16.84351068825636,0.040014247260048576,0.027268814444976256,0.01712637332568205,0.019496986953147777,0.24396551222993682,0.2544226665788663,0.09289757466804058,0.1518715140765256,0.04313621366199798,0.02387074213478641,0.0016836417300326357,0.0011127848338695996
46.848445496413014,16.84351048055755,0.040014247260048576,0.027268814444976256,0.01712637332568205,0.019496986953147777,0.24396551222993682,0.2544226665788663,0.09289757466804058,0.1518715140765256,0.04313621366199798,0.02387074213478641,0.0016836417300326357,0.0011127848338695996
46.8484125021882,16.843510635301545,0.040014247260048576,0.027268814444976256,0.01712637332568205,0.019496986953147777,0.24396551222993682,0.2544226665788663,0.09289757466804058,0.1518715140765256,0.04313621366199798,0.02387074213478641,0.0016836417300326357,0.0011127848338695996
46.84838586654818,16.84351114407209,0.02092886959200444,0.0340466043071318,0.006355745640177057,0.01274060698577032,0.1126227576957665,0.10066923764254959,0.07904622193950396,0.10727341681385259,0.018046972932734797,0.01792936931762834,0.006619381771054121,0.0035114014070227683
46.84836067012526,16.843511494166528,0.02092886959200444,0.0340466043071318,0.006355745640177057,0.01274060698577032,0.1126227576957665,0.10066923764254959,0.07904622193950396,0.10727341681385259,0.018046972932734797,0.01792936931762834,0.006619381771054121,0.0035114014070227683
46.84833308918216,16.843511488336745,0.02092886959200444,0.0340466043071318,0.006355745640177057,0.01274060698577032,0.1126227576957665,0.10066923764254959,0.07904622193950396,0.10727341681385259,0.018046972932734797,0.01792936931762834,0.006619381771054121,0.0035114014070227683
46.84830878658346,16.843511148138823,0.02092886959200444,0.0340466043071318,0.006355745640177057,0.01274060698577032,0.1126227576957665,0.10066923764254959,0.07904622193950396,0.10727341681385259,0.018046972932734797,0.01792936931762834,0.006619381771054121,0.0035114014070227683
46.84828360373669,16.843510472433692,0.02092886959200444,0.0340466043071318,0.006355745640177057,0.01274060698577032,0.1126227576957665,0.10066923764254959,0.07904622193950396,0.10727341681385259,0.018046972932734797,0.01792936931762834,0.006619381771054121,0.0035114014070227683
46.84825951945345,16.843509696680794,0.02092886959200444,0.0340466043071318,0.006355745640177057,0.01274060698577032,0.1126227576957665,0.10066923764254959,0.07904622193950396,0.10727341681385259,0.018046972932734797,0.01792936931762834,0.006619381771054121,0.0035114014070227683
46.84822965523718,16.843508678180857,0.02092886959200444,0.0340466043071318,0.006355745640177057,0.01274060698577032,0.1126227576957665,0.10066923764254959,0.07904622193950396,0.10727341681385259,0.018046972932734797,0.01792936931762834,0.006619381771054121,0.0035114014070227683
46.84820528100529,16.843507799546305,0.02092886959200444,0.0340466043071318,0.006355745640177057,0.01274060698577032,0.1126227576957665,0.10066923764254959,0.07904622193950396,0.10727341681385259,0.018046972932734797,0.01792936931762834,0.006619381771054121,0.0035114014070227683
46.84817372683022,16.843506647607644,0.02092886959200444,0.0340466043071318,0.006355745640177057,0.01274060698577032,0.1126227576957665,0.10066923764254959,0.07904622193950396,0.10727341681385259,0.018046972932734797,0.01792936931762834,0.006619381771054121,0.0035114014070227683
46.84813755946574,16.84350576923018,0.02092886959200444,0.0340466043071318,0.006355745640177057,0.01274060698577032,0.1126227576957665,0.10066923764254959,0.07904622193950396,0.10727341681385259,0.018046972932734797,0.01792936931762834,0.006619381771054121,0.0035114014070227683
46.84810666505825,16.84350548983209,0.02092886959200444,0.0340466043071318,0.006355745640177057,0.01274060698577032,0.1126227576957665,0.10066923764254959,0.07904622193950396,0.10727341681385259,0.018046972932734797,0.01792936931762834,0.006619381771054121,0.0035114014070227683
46.848076122564116,16.843505807953264,0.02092886959200444,0.0340466043071318,0.006355745640177057,0.01274060698577032,0.1126227576957665,0.10066923764254959,0.07904622193950396,0.10727341681385259,0.018046972932734797,0.01792936931762834,0.006619381771054121,0.0035114014070227683
46.848039829662994,16.843508152734174,0.02092886959200444,0.0340466043071318,0.006355745640177057,0.01274060698577032,0.1126227576957665,0.10066923764254959,0.07904622193950396,0.10727341681385259,0.018046972932734797,0.01792936931762834,0.006619381771054121,0.0035114014070227683
46.84801486652721,16.843511177999044,0.02092886959200444,0.0340466043071318,0.006355745640177057,0.01274060698577032,0.1126227576957665,0.10066923764254959,0.07904622193950396,0.10727341681385259,0.018046972932734797,0.01792936931762834,0.006619381771054121,0.0035114014070227683
46.847981030477584,16.843517584855885,0.02092886959200444,0.0340466043071318,0.006355745640177057,0.01274060698577032,0.1126227576957665,0.10066923764254959,0.07904622193950396,0.10727341681385259,0.018046972932734797,0.01792936931762834,0.006619381771054121,0.0035114014070227683
46.84795062035547,16.843526967120212,0.005196621784905014,0.051179964769050304,0.02940812544457432,0.03221103575371378,0.009537601193087691,0.04091094603294751,0.01716490797085471,0.03982411020247333,0.017710213680466533,0.018552818930468402,0.0016106484948427862,0.0023299177161504366
46.847899641109,16.843551973641638,0.005196621784905014,0.051179964769050304,0.02940812544457432,0.03221103575371378,0.009537601193087691,0.04091094603294751,0.01716490797085471,0.03982411020247333,0.017710213680466533,0.018552818930468402,0.0016106484948427862,0.0023299177161504366
46.847867947484524,16.843568556973217,0.005196621784905014,0.051179964769050304,0.02940812544457432,0.03221103575371378,0.009537601193087691,0.04091094603294751,0.01716490797085471,0.03982411020247333,0.017710213680466533,0.018552818930468402,0.0016106484948427862,0.0023299177161504366
46.84782270646181,16.843591779336297,0.005196621784905014,0.051179964769050304,0.02940812544457432,0.03221103575371378,0.009537601193087691,0.04091094603294751,0.01716490797085471,0.03982411020247333,0.017710213680466533,0.018552818930468402,0.0016106484948427862,0.0023299177161504366
46.84778066045723,16.843624173497982,0.005196621784905014,0.051179964769050304,0.02940812544457432,0.03221103575371378,0.009537601193087691,0.04091094603294751,0.01716490797085471,0.03982411020247333,0.017710213680466533,0.018552818930468402,0.0016106484948427862,0.0023299177161504366
46.84773890429933,16.84367467392354,0.048677969366499985,0.1339434638564004,0.04626819148182116,0.0792063811035521,0.13440515458289168,0.14510047449364347,0.09639452369639759,0.15801200380821445,0.013685434719163295,0.04860243471155016,0.06316628382257652,0.06560672349530042
46.84768588566329,16.843784641680468,0.048677969366499985,0.1339434638564004,0.04626819148182116,0.0792063811035521,0.13440515458289168,0.14510047449364347,0.09639452369639759,0.15801200380821445,0.013685434719163295,0.04860243471155016,0.06316628382257652,0.06560672349530042
46.847615573750026,16.844068407466683,0.048677969366499985,0.1339434638564004,0.04626819148182116,0.0792063811035521,0.13440515458289168,0.14510047449364347,0.09639452369639759,0.15801200380821445,0.013685434719163295,0.04860243471155016,0.06316628382257652,0.06560672349530042
46.8476266986121,16.84450798853011,0.048677969366499985,0.1339434638564004,0.04626819148182116,0.0792063811035521,0.13440515458289168,0.14510047449364347,0.09639452369639759,0.15801200380821445,0.013685434719163295,0.04860243471155016,0.06316628382257652,0.06560672349530042
46.84762884433901,16.844781774568325,0.048677969366499985,0.1339434638564004,0.04626819148182116,0.0792063811035521,0.13440515458289168,0.14510047449364347,0.09639452369639759,0.15801200380821445,0.013685434719163295,0.04860243471155016,0.06316628382257652,0.06560672349530042
46.84763254782924,16.84511728197414,0.027740465941702524,0.04399053660051977,0.0596911033535322,0.09338991753823847,0.03065729994728043,0.05920743439971223,0.02280731958660889,0.057495825071614576,0.006898573354777216,0.0180300537581536,0.00845706430003009,0.00617925512140864
46.8476310309535,16.845554757169346,0.027740465941702524,0.04399053660051977,0.0596911033535322,0.09338991753823847,0.03065729994728043,0.05920743439971223,0.02280731958660889,0.057495825071614576,0.006898573354777216,0.0180300537581536,0.00845706430003009,0.00617925512140864
46.847655898318855,16.84584585569374,0.027740465941702524,0.04399053660051977,0.0596911033535322,0.09338991753823847,0.03065729994728043,0.05920743439971223,0.02280731958660889,0.057495825071614576,0.006898573354777216,0.0180300537581536,0.00845706430003009,0.00617925512140864
46.847686960206204,16.846054406196327,0.027740465941702524,0.04399053660051977,0.0596911033535322,0.09338991753823847,0.03065729994728043,0.05920743439971223,0.02280731958660889,0.057495825071614576,0.006898573354777216,0.0180300537581536,0.00845706430003009,0.00617925512140864
46.84769020273699,16.84612674969343,0.027740465941702524,0.04399053660051977,0.0596911033535322,0.09338991753823847,0.03065729994728043,0.05920743439971223,0.02280731958660889,0.057495825071614576,0.006898573354777216,0.0180300537581536,0.00845706430003009,0.00617925512140864
46.84769233199721,16.84612941276314,0.01400841979885573,0.009461140837409955,0.2491664708829181,0.015614344857697072,0.012850317786636008,0.08158147624593748,0.18101990223606088,0.004280897206680086,0.011941182332660614,0.009315685889503383,0.0065168601449946935,0.0007034794874583517
46.84769838631124,16.84612595586364,0.01400841979885573,0.009461140837409955,0.2491664708829181,0.015614344857697072,0.012850317786636008,0.08158147624593748,0.18101990223606088,0.004280897206680086,0.011941182332660614,0.009315685889503383,0.0065168601449946935,0.0007034794874583517
46.8476983916413,16.846125943216002,0.01400841979885573,0.009461140837409955,0.2491664708829181,0.015614344857697072,0.012850317786636008,0.08158147624593748,0.18101990223606088,0.004280897206680086,0.011941182332660614,0.009315685889503383,0.0065168601449946935,0.0007034794874583517
46.847697987598515,16.846126161552483,0.01400841979885573,0.009461140837409955,0.2491664708829181,0.015614344857697072,0.012850317786636008,0.08158147624593748,0.18101990223606088,0.004280897206680086,0.011941182332660614,0.009315685889503383,0.0065168601449946935,0.0007034794874583517
46.84772396142838,16.846261820851883,0.01400841979885573,0.009461140837409955,0.2491664708829181,0.015614344857697072,0.012850317786636008,0.08158147624593748,0.18101990223606088,0.004280897206680086,0.011941182332660614,0.009315685889503383,0.0065168601449946935,0.0007034794874583517
46.84778852179176,16.846571688581555,0.060150005543010934,0.11812868105811311,0.15458541985990581,0.19881000260791043,0.24503103553627326,0.5608262696863591,0.16856280424170214,0.48149102708734604,0.02203708372400473,0.045074564333592776,0.0510283598166688,0.012274439160531605
46.84784165521527,16.847064997919368,0.060150005543010934,0.11812868105811311,0.15458541985990581,0.19881000260791043,0.24503103553627326,0.5608262696863591,0.16856280424170214,0.48149102708734604,0.02203708372400473,0.045074564333592776,0.0510283598166688,0.012274439160531605
46.84785277758623,16.847500478052755,0.060150005543010934,0.11812868105811311,0.15458541985990581,0.19881000260791043,0.24503103553627326,0.5608262696863591,0.16856280424170214,0.48149102708734604,0.02203708372400473,0.045074564333592776,0.0510283598166688,0.012274439160531605
46.8478494349695,16.848193602015787,0.060150005543010934,0.11812868105811311,0.15458541985990581,0.19881000260791043,0.24503103553627326,0.5608262696863591,0.16856280424170214,0.48149102708734604,0.02203708372400473,0.045074564333592776,0.0510283598166688,0.012274439160531605
46.84784095808715,16.848747547918826,0.060150005543010934,0.11812868105811311,0.15458541985990581,0.19881000260791043,0.24503103553627326,0.5608262696863591,0.16856280424170214,0.48149102708734604,0.02203708372400473,0.045074564333592776,0.0510283598166688,0.012274439160531605
46.84783715548642,16.84943990368011,0.09759002625426991,0.02634759348325554,0.039473811856975995,0.050624551445502215,0.13492771758300776,0.17136000682552244,0.08018941855624255,0.2069792712299038,0.015776339795097974,0.03017162870815872,0.01438273747772743,0.003566059690554067
46.84783399146919,16.850076305106146,0.09759002625426991,0.02634759348325554,0.039473811856975995,0.050624551445502215,0.13492771758300776,0.17136000682552244,0.08018941855624255,0.2069792712299038,0.015776339795097974,0.03017162870815872,0.01438273747772743,0.003566059690554067
46.84782902570218,16.85050199026794,0.09759002625426991,0.02634759348325554,0.039473811856975995,0.050624551445502215,0.13492771758300776,0.17136000682552244,0.08018941855624255,0.2069792712299038,0.015776339795097974,0.03017162870815872,0.01438273747772743,0.003566059690554067
46.84776321775565,16.850763388296546,0.09759002625426991,0.02634759348325554,0.039473811856975995,0.050624551445502215,0.13492771758300776,0.17136000682552244,0.08018941855624255,0.2069792712299038,0.015776339795097974,0.03017162870815872,0.01438273747772743,0.003566059690554067
46.84770797080684,16.850866456840027,0.09759002625426991,0.02634759348325554,0.039473811856975995,0.050624551445502215,0.13492771758300776,0.17136000682552244,0.08018941855624255,0.2069792712299038,0.015776339795097974,0.03017162870815872,0.01438273747772743,0.003566059690554067
46.847645690774435,16.85093321230186,0.013128562365667637,0.018101333933914297,0.01958771589386769,0.010268184324264056,0.024507792104907222,0.04245855981569457,0.04484325767928118,0.05097749836671291,0.0038627828482354163,0.0070946979086658705,0.00519520752933026,0.0007607131980672966
46.847616033687544,16.8509526420991,0.013128562365667637,0.018101333933914297,0.01958771589386769,0.010268184324264056,0.024507792104907222,0.04245855981569457,0.04484325767928118,0.05097749836671291,0.0038627828482354163,0.0070946979086658705,0.00519520752933026,0.0007607131980672966
46.84757726934069,16.85097231866782,0.013128562365667637,0.018101333933914297,0.01958771589386769,0.010268184324264056,0.024507792104907222,0.04245855981569457,0.04484325767928118,0.05097749836671291,0.0038627828482354163,0.0070946979086658705,0.00519520752933026,0.0007607131980672966
46.8475413553278,16.850986004138147,0.013128562365667637,0.018101333933914297,0.01958771589386769,0.010268184324264056,0.024507792104907222,0.04245855981569457,0.04484325767928118,0.05097749836671291,0.0038627828482354163,0.0070946979086658705,0.00519520752933026,0.0007607131980672966
46.84751069928221,16.850995373345864,0.013128562365667637,0.018101333933914297,0.01958771589386769,0.010268184324264056,0.024507792104907222,0.04245855981569457,0.04484325767928118,0.05097749836671291,0.0038627828482354163,0.0070946979086658705,0.00519520752933026,0.0007607131980672966
46.847484266415385,16.85100211080566,0.013128562365667637,0.018101333933914297,0.01958771589386769,0.010268184324264056,0.024507792104907222,0.04245855981569457,0.04484325767928118,0.05097749836671291,0.0038627828482354163,0.0070946979086658705,0.00519520752933026,0.0007607131980672966
46.847452002900596,16.85100883739932,0.013128562365667637,0.018101333933914297,0.01958771589386769,0.010268184324264056,0.024507792104907222,0.04245855981569457,0.04484325767928118,0.05097749836671291,0.0038627828482354163,0.0070946979086658705,0.00519520752933026,0.0007607131980672966
46.84742674841659,16.85101272948424,0.013128562365667637,0.018101333933914297,0.01958771589386769,0.010268184324264056,0.024507792104907222,0.04245855981569457,0.04484325767928118,0.05097749836671291,0.0038627828482354163,0.0070946979086658705,0.00519520752933026,0.0007607131980672966
46.84739349813374,16.851016197472944,0.013128562365667637,0.018101333933914297,0.01958771589386769,0.010268184324264056,0.024507792104907222,0.04245855981569457,0.04484325767928118,0.05097749836671291,0.0038627828482354163,0.0070946979086658705,0.00519520752933026,0.0007607131980672966
46.84736580720951,16.851017548383915,0.013128562365667637,0.018101333933914297,0.01958771589386769,0.010268184324264056,0.024507792104907222,0.04245855981569457,0.04484325767928118,0.05097749836671291,0.0038627828482354163,0.0070946979086658705,0.00519520752933026,0.0007607131980672966
46.84734525140118,16.851018153106295,0.013128562365667637,0.018101333933914297,0.01958771589386769,0.010268184324264056,0.024507792104907222,0.04245855981569457,0.04484325767928118,0.05097749836671291,0.0038627828482354163,0.0070946979086658705,0.00519520752933026,0.0007607131980672966
46.84731892685442,16.85101913981481,0.013128562365667637,0.018101333933914297,0.01958771589386769,0.010268184324264056,0.024507792104907222,0.04245855981569457,0.04484325767928118,0.05097749836671291,0.0038627828482354163,0.0070946979086658705,0.00519520752933026,0.0007607131980672966
46.84729405529117,16.851020239648676,0.013128562365667637,0.018101333933914297,0.01958771589386769,0.010268184324264056,0.024507792104907222,0.04245855981569457,0.04484325767928118,0.05097749836671291,0.0038627828482354163,0.0070946979086658705,0.00519520752933026,0.0007607131980672966
46.84726596245901,16.851021666932642,0.013128562365667637,0.018101333933914297,0.01958771589386769,0.010268184324264056,0.024507792104907222,0.04245855981569457,0.04484325767928118,0.05097749836671291,0.0038627828482354163,0.0070946979086658705,0.00519520752933026,0.0007607131980672966
46.84724013018814,16.851023204405326,0.013128562365667637,0.018101333933914297,0.01958771589386769,0.010268184324264056,0.024507792104907222,0.04245855981569457,0.04484325767928118,0.05097749836671291,0.0038627828482354163,0.0070946979086658705,0.00519520752933026,0.0007607131980672966
46.84721247726887,16.851025189512733,0.013128562365667637,0.018101333933914297,0.01958771589386769,0.010268184324264056,0.024507792104907222,0.04245855981569457,0.04484325767928118,0.05097749836671291,0.0038627828482354163,0.0070946979086658705,0.00519520752933026,0.0007607131980672966
46.8471838569701,16.851027610724746,0.013128562365667637,0.018101333933914297,0.01958771589386769,0.010268184324264056,0.024507792104907222,0.04245855981569457,0.04484325767928118,0.05097749836671291,0.0038627828482354163,0.0070946979086658705,0.00519520752933026,0.0007607131980672966
46.84715698902433,16.851030223043292,0.013128562365667637,0.018101333933914297,0.01958771589386769,0.010268184324264056,0.024507792104907222,0.04245855981569457,0.04484325767928118,0.05097749836671291,0.0038627828482354163,0.0070946979086658705,0.00519520752933026,0.0007607131980672966
46.84713019240341,16.851033150071384,0.013128562365667637,0.018101333933914297,0.01958771589386769,0.010268184324264056,0.024507792104907222,0.04245855981569457,0.04484325767928118,0.05097749836671291,0.0038627828482354163,0.0070946979086658705,0.00519520752933026,0.0007607131980672966
46.847105207660746,16.851036157159534,0.013128562365667637,0.018101333933914297,0.01958771589386769,0.010268184324264056,0.024507792104907222,0.04245855981569457,0.04484325767928118,0.05097749836671291,0.0038627828482354163,0.0070946979086658705,0.00519520752933026,0.0007607131980672966
46.84707799157992,16.851039743723796,0.013128562365667637,0.018101333933914297,0.01958771589386769,0.010268184324264056,0.024507792104907222,0.04245855981569457,0.04484325767928118,0.05097749836671291,0.0038627828482354163,0.0070946979086658705,0.00519520752933026,0.0007607131980672966
46.84704963225201,16.851043834482958,0.013128562365667637,0.018101333933914297,0.01958771589386769,0.010268184324264056,0.024507792104907222,0.04245855981569457,0.04484325767928118,0.05097749836671291,0.0038627828482354163,0.0070946979086658705,0.00519520752933026,0.0007607131980672966
46.84701600867097,16.851048716803756,0.013128562365667637,0.018101333933914297,0.01958771589386769,0.010268184324264056,0.024507792104907222,0.04245855981569457,0.04484325767928118,0.05097749836671291,0.0038627828482354163,0.0070946979086658705,0.00519520752933026,0.0007607131980672966
46.846994049793295,16.851051518526745,0.013128562365667637,0.018101333933914297,0.01958771589386769,0.010268184324264056,0.024507792104907222,0.04245855981569457,0.04484325767928118,0.05097749836671291,0.0038627828482354163,0.0070946979086658705,0.00519520752933026,0.0007607131980672966
46.8469635740294,16.8510548896603,0.013128562365667637,0.018101333933914297,0.01958771589386769,0.010268184324264056,0.024507792104907222,0.04245855981569457,0.04484325767928118,0.05097749836671291,0.0038627828482354163,0.0070946979086658705,0.00519520752933026,0.0007607131980672966
46.8469398431831,16.851057083520757,0.013128562365667637,0.018101333933914297,0.01958771589386769,0.010268184324264056,0.024507792104907222,0.04245855981569457,0.04484325767928118,0.05097749836671291,0.0038627828482354163,0.0070946979086658705,0.00519520752933026,0.0007607131980672966
46.8469101945304,16.851059649227988,0.013128562365667637,0.018101333933914297,0.01958771589386769,0.010268184324264056,0.024507792104907222,0.04245855981569457,0.04484325767928118,0.05097749836671291,0.0038627828482354163,0.0070946979086658705,0.00519520752933026,0.0007607131980672966
46.846880443383085,16.851062246448603,0.013128562365667637,0.018101333933914297,0.01958771589386769,0.010268184324264056,0.024507792104907222,0.04245855981569457,0.04484325767928118,0.05097749836671291,0.0038627828482354163,0.0070946979086658705,0.00519520752933026,0.0007607131980672966
46.84685174689416,16.851064775103357,0.013128562365667637,0.018101333933914297,0.01958771589386769,0.010268184324264056,0.024507792104907222,0.04245855981569457,0.04484325767928118,0.05097749836671291,0.0038627828482354163,0.0070946979086658705,0.00519520752933026,0.0007607131980672966
46.846825030769665,16.851067134720207,0.013128562365667637,0.018101333933914297,0.01958771589386769,0.010268184324264056,0.024507792104907222,0.04245855981569457,0.04484325767928118,0.05097749836671291,0.0038627828482354163,0.0070946979086658705,0.00519520752933026,0.0007607131980672966
46.84680181337032,16.85106916877442,0.005019655081026417,0.01668683954640577,0.005003931430673898,0.00940996460833611,0.06761728654582708,0.06830126309102356,0.07842623621661925,0.1579781479533658,0.002509555639306811,0.00844951975192357,0.00023182115182773965,0.0007327517494025882
46.84676525638393,16.851072336823535,0.005019655081026417,0.01668683954640577,0.005003931430673898,0.00940996460833611,0.06761728654582708,0.06830126309102356,0.07842623621661925,0.1579781479533658,0.002509555639306811,0.00844951975192357,0.00023182115182773965,0.0007327517494025882
46.846738962917584,16.851074602882544,0.005019655081026417,0.01668683954640577,0.005003931430673898,0.00940996460833611,0.06761728654582708,0.06830126309102356,0.07842623621661925,0.1579781479533658,0.002509555639306811,0.00844951975192357,0.00023182115182773965,0.0007327517494025882
46.84672739432094,16.851075614129538,0.005019655081026417,0.01668683954640577,0.005003931430673898,0.00940996460833611,0.06761728654582708,0.06830126309102356,0.07842623621661925,0.1579781479533658,0.002509555639306811,0.00844951975192357,0.00023182115182773965,0.0007327517494025882
46.84668493460338,16.851079663077932,0.005019655081026417,0.01668683954640577,0.005003931430673898,0.00940996460833611,0.06761728654582708,0.06830126309102356,0.07842623621661925,0.1579781479533658,0.002509555639306811,0.00844951975192357,0.00023182115182773965,0.0007327517494025882
46.84665255115229,16.851083016431055,0.03465351429815126,0.022721227142120912,0.018199098713885923,0.04294472447015193,0.18212786592980423,0.11257607519607414,0.03833846084805252,0.06082028199162072,0.012641141497546965,0.010086318190424323,0.0004469648702427932,0.0004399173322430202
46.8466312728034,16.851085234949874,0.03465351429815126,0.022721227142120912,0.018199098713885923,0.04294472447015193,0.18212786592980423,0.11257607519607414,0.03833846084805252,0.06082028199162072,0.012641141497546965,0.010086318190424323,0.0004469648702427932,0.0004399173322430202
46.84659058479324,16.851089066682547,0.03465351429815126,0.022721227142120912,0.018199098713885923,0.04294472447015193,0.18212786592980423,0.11257607519607414,0.03833846084805252,0.06082028199162072,0.012641141497546965,0.010086318190424323,0.0004469648702427932,0.0004399173322430202
46.846561594683514,16.851091521765802,0.03465351429815126,0.022721227142120912,0.018199098713885923,0.04294472447015193,0.18212786592980423,0.11257607519607414,0.03833846084805252,0.06082028199162072,0.012641141497546965,0.010086318190424323,0.0004469648702427932,0.0004399173322430202
46.84652986460488,16.85109410782719,0.03465351429815126,0.022721227142120912,0.018199098713885923,0.04294472447015193,0.18212786592980423,0.11257607519607414,0.03833846084805252,0.06082028199162072,0.012641141497546965,0.010086318190424323,0.0004469648702427932,0.0004399173322430202
46.84651325739435,16.85109549439794,0.004814025239349278,0.0180317987112772,0.013346191632462588,0.012463511085005732,0.020388298487631986,0.04479156115429596,0.05662568178471325,0.03680996950918613,0.005079806832345602,0.008481376155988304,0.0002904894815593563,0.0006994231745718117
46.84647395504217,16.851098925720283,0.004814025239349278,0.0180317987112772,0.013346191632462588,0.012463511085005732,0.020388298487631986,0.04479156115429596,0.05662568178471325,0.03680996950918613,0.005079806832345602,0.008481376155988304,0.0002904894815593563,0.0006994231745718117
46.84644686104959,16.85110143020837,0.004814025239349278,0.0180317987112772,0.013346191632462588,0.012463511085005732,0.020388298487631986,0.04479156115429596,0.05662568178471325,0.03680996950918613,0.005079806832345602,0.008481376155988304,0.0002904894815593563,0.0006994231745718117
46.84640556928616,16.85110575078509,0.004814025239349278,0.0180317987112772,0.013346191632462588,0.012463511085005732,0.020388298487631986,0.04479156115429596,0.05662568178471325,0.03680996950918613,0.005079806832345602,0.008481376155988304,0.0002904894815593563,0.0006994231745718117
46.84638429670764,16.851108224685433,0.004814025239349278,0.0180317987112772,0.013346191632462588,0.012463511085005732,0.020388298487631986,0.04479156115429596,0.05662568178471325,0.03680996950918613,0.005079806832345602,0.008481376155988304,0.0002904894815593563,0.0006994231745718117
46.84634578665988,16.85111280635517,0.004814025239349278,0.0180317987112772,0.013346191632462588,0.012463511085005732,0.020388298487631986,0.04479156115429596,0.05662568178471325,0.03680996950918613,0.005079806832345602,0.008481376155988304,0.0002904894815593563,0.0006994231745718117
46.846326939338475,16.851114883026806,0.004814025239349278,0.0180317987112772,0.013346191632462588,0.012463511085005732,0.020388298487631986,0.04479156115429596,0.05662568178471325,0.03680996950918613,0.005079806832345602,0.008481376155988304,0.0002904894815593563,0.0006994231745718117
46.8462689219983,16.85112054712764,0.004814025239349278,0.0180317987112772,0.013346191632462588,0.012463511085005732,0.020388298487631986,0.04479156115429596,0.05662568178471325,0.03680996950918613,0.005079806832345602,0.008481376155988304,0.0002904894815593563,0.0006994231745718117
46.84624846755181,16.851122372619077,0.004814025239349278,0.0180317987112772,0.013346191632462588,0.012463511085005732,0.020388298487631986,0.04479156115429596,0.05662568178471325,0.03680996950918613,0.005079806832345602,0.008481376155988304,0.0002904894815593563,0.0006994231745718117
46.84621989646262,16.851124851136678,0.004814025239349278,0.0180317987112772,0.013346191632462588,0.012463511085005732,0.020388298487631986,0.04479156115429596,0.05662568178471325,0.03680996950918613,0.005079806832345602,0.008481376155988304,0.0002904894815593563,0.0006994231745718117
46.846169727962355,16.8511290561871,0.004814025239349278,0.0180317987112772,0.013346191632462588,0.012463511085005732,0.020388298487631986,0.04479156115429596,0.05662568178471325,0.03680996950918613,0.005079806832345602,0.008481376155988304,0.0002904894815593563,0.0006994231745718117
46.84613727211875,16.85113198128502,0.004814025239349278,0.0180317987112772,0.013346191632462588,0.012463511085005732,0.020388298487631986,0.04479156115429596,0.05662568178471325,0.03680996950918613,0.005079806832345602,0.008481376155988304,0.0002904894815593563,0.0006994231745718117
46.84610257218014,16.85113534363569,0.004814025239349278,0.0180317987112772,0.013346191632462588,0.012463511085005732,0.020388298487631986,0.04479156115429596,0.05662568178471325,0.03680996950918613,0.005079806832345602,0.008481376155988304,0.0002904894815593563,0.0006994231745718117
46.84606601408686,16.851139593938655,0.004814025239349278,0.0180317987112772,0.013346191632462588,0.012463511085005732,0.020388298487631986,0.04479156115429596,0.05662568178471325,0.03680996950918613,0.005079806832345602,0.008481376155988304,0.0002904894815593563,0.0006994231745718117
46.84603067885679,16.851144601174283,0.004814025239349278,0.0180317987112772,0.013346191632462588,0.012463511085005732,0.020388298487631986,0.04479156115429596,0.05662568178471325,0.03680996950918613,0.005079806832345602,0.008481376155988304,0.0002904894815593563,0.0006994231745718117
46.845996598098594,16.851147737223705,0.004814025239349278,0.0180317987112772,0.013346191632462588,0.012463511085005732,0.020388298487631986,0.04479156115429596,0.05662568178471325,0.03680996950918613,0.005079806832345602,0.008481376155988304,0.0002904894815593563,0.0006994231745718117
46.84596046641616,16.85114466577375,0.004814025239349278,0.0180317987112772,0.013346191632462588,0.012463511085005732,0.020388298487631986,0.04479156115429596,0.05662568178471325,0.03680996950918613,0.005079806832345602,0.008481376155988304,0.0002904894815593563,0.0006994231745718117
46.845928635670006,16.851138291006183,0.004814025239349278,0.0180317987112772,0.013346191632462588,0.012463511085005732,0.020388298487631986,0.04479156115429596,0.05662568178471325,0.03680996950918613,0.005079806832345602,0.008481376155988304,0.0002904894815593563,0.0006994231745718117
46.84588141736083,16.8511355124866,0.004814025239349278,0.0180317987112772,0.013346191632462588,0.012463511085005732,0.020388298487631986,0.04479156115429596,0.05662568178471325,0.03680996950918613,0.005079806832345602,0.008481376155988304,0.0002904894815593563,0.0006994231745718117
46.84583047582314,16.851139138397407,0.004814025239349278,0.0180317987112772,0.013346191632462588,0.012463511085005732,0.020388298487631986,0.04479156115429596,0.05662568178471325,0.03680996950918613,0.005079806832345602,0.008481376155988304,0.0002904894815593563,0.0006994231745718117
46.84578656172694,16.85114231200754,0.00677443382409904,0.013709290262136154,0.211112434189438,0.009136162073671779,0.019250067829715025,0.05466605201306405,0.008766362158154038,0.007274635483774157,0.0019244567986980805,0.006671859259515644,0.00040421917894543804,0.0005543842944280713
46.84572112905261,16.851147211163326,0.00677443382409904,0.013709290262136154,0.211112434189438,0.009136162073671779,0.019250067829715025,0.05466605201306405,0.008766362158154038,0.007274635483774157,0.0019244567986980805,0.006671859259515644,0.00040421917894543804,0.0005543842944280713
46.84569660298751,16.85114920424776,0.00677443382409904,0.013709290262136154,0.211112434189438,0.009136162073671779,0.019250067829715025,0.05466605201306405,0.008766362158154038,0.007274635483774157,0.0019244567986980805,0.006671859259515644,0.00040421917894543804,0.0005543842944280713
46.84569198915977,16.851149559300207,0.00677443382409904,0.013709290262136154,0.211112434189438,0.009136162073671779,0.019250067829715025,0.05466605201306405,0.008766362158154038,0.007274635483774157,0.0019244567986980805,0.006671859259515644,0.00040421917894543804,0.0005543842944280713
46.845692912079805,16.851149455873475,0.00677443382409904,0.013709290262136154,0.211112434189438,0.009136162073671779,0.019250067829715025,0.05466605201306405,0.008766362158154038,0.007274635483774157,0.0019244567986980805,0.006671859259515644,0.00040421917894543804,0.0005543842944280713
46.8456929719476,16.851149075473497,0.0033266398352188127,0.004927050205582136,0.23329317508716457,0.19347553181802987,0.030267161453377052,0.06211308683976054,0.028800282643381057,0.004435424708260248,0.001070203000873131,0.006284540487676537,0.0018660031671656131,0.0004105056609745813
46.8456929719476,16.851149075473874,0.0033266398352188127,0.004927050205582136,0.23329317508716457,0.19347553181802987,0.030267161453377052,0.06211308683976054,0.028800282643381057,0.004435424708260248,0.001070203000873131,0.006284540487676537,0.0018660031671656131,0.0004105056609745813
46.84569297194762,16.85114907547447,0.0033266398352188127,0.004927050205582136,0.23329317508716457,0.19347553181802987,0.030267161453377052,0.06211308683976054,0.028800282643381057,0.004435424708260248,0.001070203000873131,0.006284540487676537,0.0018660031671656131,0.0004105056609745813
46.845686499774445,16.85114967982326,0.0033266398352188127,0.004927050205582136,0.23329317508716457,0.19347553181802987,0.030267161453377052,0.06211308683976054,0.028800282643381057,0.004435424708260248,0.001070203000873131,0.006284540487676537,0.0018660031671656131,0.0004105056609745813
46.84561178267084,16.851153512557165,0.0033266398352188127,0.004927050205582136,0.23329317508716457,0.19347553181802987,0.030267161453377052,0.06211308683976054,0.028800282643381057,0.004435424708260248,0.001070203000873131,0.006284540487676537,0.0018660031671656131,0.0004105056609745813
46.845540317357326,16.851155547970595,0.027045489067852112,0.02634759348325554,0.6391432595836434,0.5994650872432346,0.02148464354931212,0.08808558109799644,0.06751435898799352,0.15576736402674124,0.21252691012048286,0.1677748294762642,0.07140816774629939,0.0012060309196410585
46.84546175430151,16.851158043309727,0.027045489067852112,0.02634759348325554,0.6391432595836434,0.5994650872432346,0.02148464354931212,0.08808558109799644,0.06751435898799352,0.15576736402674124,0.21252691012048286,0.1677748294762642,0.07140816774629939,0.0012060309196410585
46.8454179047617,16.851159460097847,0.027045489067852112,0.02634759348325554,0.6391432595836434,0.5994650872432346,0.02148464354931212,0.08808558109799644,0.06751435898799352,0.15576736402674124,0.21252691012048286,0.1677748294762642,0.07140816774629939,0.0012060309196410585
46.84539479607424,16.85147997792371,0.027045489067852112,0.02634759348325554,0.6391432595836434,0.5994650872432346,0.02148464354931212,0.08808558109799644,0.06751435898799352,0.15576736402674124,0.21252691012048286,0.1677748294762642,0.07140816774629939,0.0012060309196410585
46.845395712315124,16.85187820902565,0.027045489067852112,0.02634759348325554,0.6391432595836434,0.5994650872432346,0.02148464354931212,0.08808558109799644,0.06751435898799352,0.15576736402674124,0.21252691012048286,0.1677748294762642,0.07140816774629939,0.0012060309196410585
46.84540986710699,16.852287044282065,0.03240314113812783,0.1012766319167305,0.1777195576793161,0.11772337074720633,0.0493492719525694,0.1323037243185506,0.055157155886172746,0.08250575056147015,0.1838030034263648,0.2689700553082689,0.006036373670760667,0.015477623991954695
46.84540374829695,16.85288735294249,0.03240314113812783,0.1012766319167305,0.1777195576793161,0.11772337074720633,0.0493492719525694,0.1323037243185506,0.055157155886172746,0.08250575056147015,0.1838030034263648,0.2689700553082689,0.006036373670760667,0.015477623991954695
46.845409859728456,16.85353442084346,0.03240314113812783,0.1012766319167305,0.1777195576793161,0.11772337074720633,0.0493492719525694,0.1323037243185506,0.055157155886172746,0.08250575056147015,0.1838030034263648,0.2689700553082689,0.006036373670760667,0.015477623991954695
46.845429590403924,16.854225323791514,0.03240314113812783,0.1012766319167305,0.1777195576793161,0.11772337074720633,0.0493492719525694,0.1323037243185506,0.055157155886172746,0.08250575056147015,0.1838030034263648,0.2689700553082689,0.006036373670760667,0.015477623991954695
46.84544171966566,16.85500224792457,0.03240314113812783,0.1012766319167305,0.1777195576793161,0.11772337074720633,0.0493492719525694,0.1323037243185506,0.055157155886172746,0.08250575056147015,0.1838030034263648,0.2689700553082689,0.006036373670760667,0.015477623991954695
46.84543833504757,16.85569373703893,0.03201200088687497,0.02755457921568366,0.06018814266832919,0.0766306225214726,0.15871618812855234,0.1984303270670085,0.08210844165326442,0.08315395699177139,0.2072580197137495,0.37506860128574737,0.03899832631624497,0.027161312476163196
46.845416425612534,16.856517819924893,0.03201200088687497,0.02755457921568366,0.06018814266832919,0.0766306225214726,0.15871618812855234,0.1984303270670085,0.08210844165326442,0.08315395699177139,0.2072580197137495,0.37506860128574737,0.03899832631624497,0.027161312476163196
46.84537529424465,16.857103312717676,0.03201200088687497,0.02755457921568366,0.06018814266832919,0.0766306225214726,0.15871618812855234,0.1984303270670085,0.08210844165326442,0.08315395699177139,0.2072580197137495,0.37506860128574737,0.03899832631624497,0.027161312476163196
46.84533254556697,16.85757785090633,0.03201200088687497,0.02755457921568366,0.06018814266832919,0.0766306225214726,0.15871618812855234,0.1984303270670085,0.08210844165326442,0.08315395699177139,0.2072580197137495,0.37506860128574737,0.03899832631624497,0.027161312476163196
46.845264619416554,16.85818154564635,0.03201200088687497,0.02755457921568366,0.06018814266832919,0.0766306225214726,0.15871618812855234,0.1984303270670085,0.08210844165326442,0.08315395699177139,0.2072580197137495,0.37506860128574737,0.03899832631624497,0.027161312476163196
46.84522550221684,16.858470950613096,0.01720086997945635,0.02341662909079806,0.050323857595218575,0.03522173554126747,0.02430762073538771,0.05038319456788488,0.02645046217240385,0.03225962761712454,0.1532097342344526,0.15603102694617216,0.04255311432911745,0.03071772085491201
46.845138513606585,16.859065019342186,0.01720086997945635,0.02341662909079806,0.050323857595218575,0.03522173554126747,0.02430762073538771,0.05038319456788488,0.02645046217240385,0.03225962761712454,0.1532097342344526,0.15603102694617216,0.04255311432911745,0.03071772085491201
46.845072611751874,16.859471253292046,0.01720086997945635,0.02341662909079806,0.050323857595218575,0.03522173554126747,0.02430762073538771,0.05038319456788488,0.02645046217240385,0.03225962761712454,0.1532097342344526,0.15603102694617216,0.04255311432911745,0.03071772085491201
46.845000683736785,16.859974782675874,0.01720086997945635,0.02341662909079806,0.050323857595218575,0.03522173554126747,0.02430762073538771,0.05038319456788488,0.02645046217240385,0.03225962761712454,0.1532097342344526,0.15603102694617216,0.04255311432911745,0.03071772085491201
46.84495116820393,16.86030936154034,0.01720086997945635,0.02341662909079806,0.050323857595218575,0.03522173554126747,0.02430762073538771,0.05038319456788488,0.02645046217240385,0.03225962761712454,0.1532097342344526,0.15603102694617216,0.04255311432911745,0.03071772085491201
46.84485024082694,16.86078764245862,0.0,0.02634759348325554,0.07402163122465093,0.12070185005603756,0.026122118881934213,0.17422046808979683,0.14003547503996244,0.3882402944282795,0.13384462758072668,0.11706428801664054,0.0,0.0012060309196410585
46.844796687549895,16.86117974072706,0.0,0.02634759348325554,0.07402163122465093,0.12070185005603756,0.026122118881934213,0.17422046808979683,0.14003547503996244,0.3882402944282795,0.13384462758072668,0.11706428801664054,0.0,0.0012060309196410585
46.84472629264372,16.861375365476512,0.0,0.02634759348325554,0.07402163122465093,0.12070185005603756,0.026122118881934213,0.17422046808979683,0.14003547503996244,0.3882402944282795,0.13384462758072668,0.11706428801664054,0.0,0.0012060309196410585
46.84464507451869,16.86142479893942,0.0,0.02634759348325554,0.07402163122465093,0.12070185005603756,0.026122118881934213,0.17422046808979683,0.14003547503996244,0.3882402944282795,0.13384462758072668,0.11706428801664054,0.0,0.0012060309196410585
46.84457632958939,16.861401038393765,0.0,0.02634759348325554,0.07402163122465093,0.12070185005603756,0.026122118881934213,0.17422046808979683,0.14003547503996244,0.3882402944282795,0.13384462758072668,0.11706428801664054,0.0,0.0012060309196410585
46.84450056640854,16.86133981731215,0.026586831719428296,0.02634759348325554,0.023969504396804005,0.15805797932894408,0.041690210925372936,0.04577401996953494,0.07779149830334477,0.10840417336633876,0.004527540361422601,0.024234785449787726,0.006082031348128834,0.0012060309196410585
46.844438561370964,16.861290177458603,0.026586831719428296,0.02634759348325554,0.023969504396804005,0.15805797932894408,0.041690210925372936,0.04577401996953494,0.07779149830334477,0.10840417336633876,0.004527540361422601,0.024234785449787726,0.006082031348128834,0.0012060309196410585
46.844389077450394,16.86126878600274,0.026586831719428296,0.02634759348325554,0.023969504396804005,0.15805797932894408,0.041690210925372936,0.04577401996953494,0.07779149830334477,0.10840417336633876,0.004527540361422601,0.024234785449787726,0.006082031348128834,0.0012060309196410585
46.844322391794165,16.86126853104581,0.026586831719428296,0.02634759348325554,0.023969504396804005,0.15805797932894408,0.041690210925372936,0.04577401996953494,0.07779149830334477,0.10840417336633876,0.004527540361422601,0.024234785449787726,0.006082031348128834,0.0012060309196410585
46.84426382303578,16.861301170550664,0.026586831719428296,0.02634759348325554,0.023969504396804005,0.15805797932894408,0.041690210925372936,0.04577401996953494,0.07779149830334477,0.10840417336633876,0.004527540361422601,0.024234785449787726,0.006082031348128834,0.0012060309196410585
46.84418217858439,16.86143159090799,0.027149416116115002,0.04305784999830833,0.07661222543154826,0.06030263366786029,0.00967527886331855,0.06044554782893049,0.013048420669521688,0.05402466963180057,0.00799213529296604,0.02418691669110837,0.011233387154511765,0.0015651540454853768
46.84410390669639,16.861600104556107,0.027149416116115002,0.04305784999830833,0.07661222543154826,0.06030263366786029,0.00967527886331855,0.06044554782893049,0.013048420669521688,0.05402466963180057,0.00799213529296604,0.02418691669110837,0.011233387154511765,0.0015651540454853768
46.84403244991864,16.861699237672983,0.027149416116115002,0.04305784999830833,0.07661222543154826,0.06030263366786029,0.00967527886331855,0.06044554782893049,0.013048420669521688,0.05402466963180057,0.00799213529296604,0.02418691669110837,0.011233387154511765,0.0015651540454853768
46.84399803367511,16.86173120885693,0.027149416116115002,0.04305784999830833,0.07661222543154826,0.06030263366786029,0.00967527886331855,0.06044554782893049,0.013048420669521688,0.05402466963180057,0.00799213529296604,0.02418691669110837,0.011233387154511765,0.0015651540454853768
46.84396880888108,16.861753320391294,0.027149416116115002,0.04305784999830833,0.07661222543154826,0.06030263366786029,0.00967527886331855,0.06044554782893049,0.013048420669521688,0.05402466963180057,0.00799213529296604,0.02418691669110837,0.011233387154511765,0.0015651540454853768
46.84392116777593,16.86178191209931,0.045322564969654144,0.10163998432659459,0.012127432866998274,0.03027294417460905,0.08645321880716102,0.2271242959720945,0.06374628721721412,0.13788735159265078,0.042351627409542056,0.05807010529432507,0.0044645757729525875,0.012244861212263794
46.84389417470137,16.861795472809625,0.045322564969654144,0.10163998432659459,0.012127432866998274,0.03027294417460905,0.08645321880716102,0.2271242959720945,0.06374628721721412,0.13788735159265078,0.042351627409542056,0.05807010529432507,0.0044645757729525875,0.012244861212263794
46.84388130979389,16.861801603782585,0.045322564969654144,0.10163998432659459,0.012127432866998274,0.03027294417460905,0.08645321880716102,0.2271242959720945,0.06374628721721412,0.13788735159265078,0.042351627409542056,0.05807010529432507,0.0044645757729525875,0.012244861212263794
46.84383756711689,16.86181845316512,0.045322564969654144,0.10163998432659459,0.012127432866998274,0.03027294417460905,0.08645321880716102,0.2271242959720945,0.06374628721721412,0.13788735159265078,0.042351627409542056,0.05807010529432507,0.0044645757729525875,0.012244861212263794
46.84380217984086,16.861828567785768,0.045322564969654144,0.10163998432659459,0.012127432866998274,0.03027294417460905,0.08645321880716102,0.2271242959720945,0.06374628721721412,0.13788735159265078,0.042351627409542056,0.05807010529432507,0.0044645757729525875,0.012244861212263794
46.84377693121878,16.86183396164663,0.010608588881672987,0.024160144894828883,0.041444314893611625,0.024973164195360085,0.05798073103351905,0.06851564030852411,0.023691944400190602,0.0484884031125809,0.007877482479435056,0.011464256476100896,0.0016220080935714944,0.0006373683048612198
46.843759202650446,16.861837125361752,0.010608588881672987,0.024160144894828883,0.041444314893611625,0.024973164195360085,0.05798073103351905,0.06851564030852411,0.023691944400190602,0.0484884031125809,0.007877482479435056,0.011464256476100896,0.0016220080935714944,0.0006373683048612198
46.843717557963934,16.86184465286065,0.010608588881672987,0.024160144894828883,0.041444314893611625,0.024973164195360085,0.05798073103351905,0.06851564030852411,0.023691944400190602,0.0484884031125809,0.007877482479435056,0.011464256476100896,0.0016220080935714944,0.0006373683048612198
46.84368697562405,16.861850293485524,0.010608588881672987,0.024160144894828883,0.041444314893611625,0.024973164195360085,0.05798073103351905,0.06851564030852411,0.023691944400190602,0.0484884031125809,0.007877482479435056,0.011464256476100896,0.0016220080935714944,0.0006373683048612198
46.843661487646386,16.86185506726533,0.010608588881672987,0.024160144894828883,0.041444314893611625,0.024973164195360085,0.05798073103351905,0.06851564030852411,0.023691944400190602,0.0484884031125809,0.007877482479435056,0.011464256476100896,0.0016220080935714944,0.0006373683048612198
46.84362823846104,16.861861341421644,0.010608588881672987,0.024160144894828883,0.041444314893611625,0.024973164195360085,0.05798073103351905,0.06851564030852411,0.023691944400190602,0.0484884031125809,0.007877482479435056,0.011464256476100896,0.0016220080935714944,0.0006373683048612198
46.84360088823902,16.86186653001988,0.010608588881672987,0.024160144894828883,0.041444314893611625,0.024973164195360085,0.05798073103351905,0.06851564030852411,0.023691944400190602,0.0484884031125809,0.007877482479435056,0.011464256476100896,0.0016220080935714944,0.0006373683048612198
46.843574214800995,16.86187161448093,0.010608588881672987,0.024160144894828883,0.041444314893611625,0.024973164195360085,0.05798073103351905,0.06851564030852411,0.023691944400190602,0.0484884031125809,0.007877482479435056,0.011464256476100896,0.0016220080935714944,0.0006373683048612198
46.84355485992746,16.861875319039807,0.010608588881672987,0.024160144894828883,0.041444314893611625,0.024973164195360085,0.05798073103351905,0.06851564030852411,0.023691944400190602,0.0484884031125809,0.007877482479435056,0.011464256476100896,0.0016220080935714944,0.0006373683048612198
46.84351771505566,16.86188248076775,0.010608588881672987,0.024160144894828883,0.041444314893611625,0.024973164195360085,0.05798073103351905,0.06851564030852411,0.023691944400190602,0.0484884031125809,0.007877482479435056,0.011464256476100896,0.0016220080935714944,0.0006373683048612198
46.843489264238,16.861888009474228,0.010608588881672987,0.024160144894828883,0.041444314893611625,0.024973164195360085,0.05798073103351905,0.06851564030852411,0.023691944400190602,0.0484884031125809,0.007877482479435056,0.011464256476100896,0.0016220080935714944,0.0006373683048612198
46.84345627026379,16.86189449479445,0.010608588881672987,0.024160144894828883,0.041444314893611625,0.024973164195360085,0.05798073103351905,0.06851564030852411,0.023691944400190602,0.0484884031125809,0.007877482479435056,0.011464256476100896,0.0016220080935714944,0.0006373683048612198
46.843430818387475,16.86189975985206,0.010608588881672987,0.024160144894828883,0.041444314893611625,0.024973164195360085,0.05798073103351905,0.06851564030852411,0.023691944400190602,0.0484884031125809,0.007877482479435056,0.011464256476100896,0.0016220080935714944,0.0006373683048612198
46.843394344126885,16.861907802476015,0.010608588881672987,0.024160144894828883,0.041444314893611625,0.024973164195360085,0.05798073103351905,0.06851564030852411,0.023691944400190602,0.0484884031125809,0.007877482479435056,0.011464256476100896,0.0016220080935714944,0.0006373683048612198
46.84336399463338,16.861914911294246,0.010608588881672987,0.024160144894828883,0.041444314893611625,0.024973164195360085,0.05798073103351905,0.06851564030852411,0.023691944400190602,0.0484884031125809,0.007877482479435056,0.011464256476100896,0.0016220080935714944,0.0006373683048612198
46.843339096645515,16.861920879793004,0.013399057383464552,0.024646555527075353,0.01020439238599982,0.011263676029565175,0.052084782039257364,0.07180182851798722,0.0463827756772103,0.10090855375047911,0.016256327455880105,0.014927576487961133,0.0005844121086532278,0.00045358156615661084
46.84330856670331,16.861928117436143,0.013399057383464552,0.024646555527075353,0.01020439238599982,0.011263676029565175,0.052084782039257364,0.07180182851798722,0.0463827756772103,0.10090855375047911,0.016256327455880105,0.014927576487961133,0.0005844121086532278,0.00045358156615661084
46.84328292828177,16.86193413871328,0.013399057383464552,0.024646555527075353,0.01020439238599982,0.011263676029565175,0.052084782039257364,0.07180182851798722,0.0463827756772103,0.10090855375047911,0.016256327455880105,0.014927576487961133,0.0005844121086532278,0.00045358156615661084
46.843257676933014,16.861940021802354,0.013399057383464552,0.024646555527075353,0.01020439238599982,0.011263676029565175,0.052084782039257364,0.07180182851798722,0.0463827756772103,0.10090855375047911,0.016256327455880105,0.014927576487961133,0.0005844121086532278,0.00045358156615661084
46.84323260229818,16.86194584973136,0.013399057383464552,0.024646555527075353,0.01020439238599982,0.011263676029565175,0.052084782039257364,0.07180182851798722,0.0463827756772103,0.10090855375047911,0.016256327455880105,0.014927576487961133,0.0005844121086532278,0.00045358156615661084
46.84320695045771,16.861951857714605,0.009322047062249702,0.04010716528957765,0.03096576741783834,0.022912074956139408,0.03637436893132259,0.12391790109751859,0.1205233635876187,0.17309278478161585,0.013949836731062334,0.017092143381591676,0.0005494494327974868,0.0008416694463205341
46.84318077990606,16.861958035343765,0.009322047062249702,0.04010716528957765,0.03096576741783834,0.022912074956139408,0.03637436893132259,0.12391790109751859,0.1205233635876187,0.17309278478161585,0.013949836731062334,0.017092143381591676,0.0005494494327974868,0.0008416694463205341
46.84315411663295,16.86196437795366,0.009322047062249702,0.04010716528957765,0.03096576741783834,0.022912074956139408,0.03637436893132259,0.12391790109751859,0.1205233635876187,0.17309278478161585,0.013949836731062334,0.017092143381591676,0.0005494494327974868,0.0008416694463205341
46.843125815425836,16.861971156532444,0.009322047062249702,0.04010716528957765,0.03096576741783834,0.022912074956139408,0.03637436893132259,0.12391790109751859,0.1205233635876187,0.17309278478161585,0.013949836731062334,0.017092143381591676,0.0005494494327974868,0.0008416694463205341
46.84309809498367,16.861977752717877,0.009322047062249702,0.04010716528957765,0.03096576741783834,0.022912074956139408,0.03637436893132259,0.12391790109751859,0.1205233635876187,0.17309278478161585,0.013949836731062334,0.017092143381591676,0.0005494494327974868,0.0008416694463205341
46.84307141955814,16.86198402980312,0.005360681383427641,0.0211855135237194,0.014224368533216031,0.021344504127673258,0.00925231214528191,0.0626433634394771,0.02716821944499667,0.02934015757199559,0.005650779675193494,0.012227233539591226,0.00014807541572867496,0.0005622975087176396
46.84304468296734,16.861990252114285,0.005360681383427641,0.0211855135237194,0.014224368533216031,0.021344504127673258,0.00925231214528191,0.0626433634394771,0.02716821944499667,0.02934015757199559,0.005650779675193494,0.012227233539591226,0.00014807541572867496,0.0005622975087176396
46.84301790274345,16.861996415151506,0.005360681383427641,0.0211855135237194,0.014224368533216031,0.021344504127673258,0.00925231214528191,0.0626433634394771,0.02716821944499667,0.02934015757199559,0.005650779675193494,0.012227233539591226,0.00014807541572867496,0.0005622975087176396
46.84299153821906,16.86200242855067,0.005360681383427641,0.0211855135237194,0.014224368533216031,0.021344504127673258,0.00925231214528191,0.0626433634394771,0.02716821944499667,0.02934015757199559,0.005650779675193494,0.012227233539591226,0.00014807541572867496,0.0005622975087176396
46.84296478951189,16.86200850640507,0.005360681383427641,0.0211855135237194,0.014224368533216031,0.021344504127673258,0.00925231214528191,0.0626433634394771,0.02716821944499667,0.02934015757199559,0.005650779675193494,0.012227233539591226,0.00014807541572867496,0.0005622975087176396
46.84293843725428,16.862014472840578,0.005360681383427641,0.0211855135237194,0.014224368533216031,0.021344504127673258,0.00925231214528191,0.0626433634394771,0.02716821944499667,0.02934015757199559,0.005650779675193494,0.012227233539591226,0.00014807541572867496,0.0005622975087176396
46.84291112575047,16.862020634561027,0.005360681383427641,0.0211855135237194,0.014224368533216031,0.021344504127673258,0.00925231214528191,0.0626433634394771,0.02716821944499667,0.02934015757199559,0.005650779675193494,0.012227233539591226,0.00014807541572867496,0.0005622975087176396
46.84288420079384,16.86202668923415,0.005360681383427641,0.0211855135237194,0.014224368533216031,0.021344504127673258,0.00925231214528191,0.0626433634394771,0.02716821944499667,0.02934015757199559,0.005650779675193494,0.012227233539591226,0.00014807541572867496,0.0005622975087176396
46.84285736383573,16.86203275113377,0.005360681383427641,0.0211855135237194,0.014224368533216031,0.021344504127673258,0.00925231214528191,0.0626433634394771,0.02716821944499667,0.02934015757199559,0.005650779675193494,0.012227233539591226,0.00014807541572867496,0.0005622975087176396
46.84283062499734,16.862038839422816,0.005360681383427641,0.0211855135237194,0.014224368533216031,0.021344504127673258,0.00925231214528191,0.0626433634394771,0.02716821944499667,0.02934015757199559,0.005650779675193494,0.012227233539591226,0.00014807541572867496,0.0005622975087176396
46.842803276715,16.862045116811714,0.005360681383427641,0.0211855135237194,0.014224368533216031,0.021344504127673258,0.00925231214528191,0.0626433634394771,0.02716821944499667,0.02934015757199559,0.005650779675193494,0.012227233539591226,0.00014807541572867496,0.0005622975087176396
46.84277527216185,16.862051597805095,0.005360681383427641,0.0211855135237194,0.014224368533216031,0.021344504127673258,0.00925231214528191,0.0626433634394771,0.02716821944499667,0.02934015757199559,0.005650779675193494,0.012227233539591226,0.00014807541572867496,0.0005622975087176396
46.84274859890269,16.86205780735557,0.005360681383427641,0.0211855135237194,0.014224368533216031,0.021344504127673258,0.00925231214528191,0.0626433634394771,0.02716821944499667,0.02934015757199559,0.005650779675193494,0.012227233539591226,0.00014807541572867496,0.0005622975087176396
46.84272196435198,16.862063990299404,0.005360681383427641,0.0211855135237194,0.014224368533216031,0.021344504127673258,0.00925231214528191,0.0626433634394771,0.02716821944499667,0.02934015757199559,0.005650779675193494,0.012227233539591226,0.00014807541572867496,0.0005622975087176396
46.84269424617003,16.862070400519023,0.005360681383427641,0.0211855135237194,0.014224368533216031,0.021344504127673258,0.00925231214528191,0.0626433634394771,0.02716821944499667,0.02934015757199559,0.005650779675193494,0.012227233539591226,0.00014807541572867496,0.0005622975087176396
46.84266632530846,16.86207683279254,0.007633908197449586,0.04197498753841822,0.008112738234677615,0.020529765428944444,0.03029485911109778,0.0931335925583501,0.03223218642879464,0.1041301574305925,0.003591877285872763,0.01794249088639855,0.0002900674360920425,0.0011511170473600138
46.842639356514695,16.862083022305864,0.007633908197449586,0.04197498753841822,0.008112738234677615,0.020529765428944444,0.03029485911109778,0.0931335925583501,0.03223218642879464,0.1041301574305925,0.003591877285872763,0.01794249088639855,0.0002900674360920425,0.0011511170473600138
46.842611880204274,16.862089311627354,0.007633908197449586,0.04197498753841822,0.008112738234677615,0.020529765428944444,0.03029485911109778,0.0931335925583501,0.03223218642879464,0.1041301574305925,0.003591877285872763,0.01794249088639855,0.0002900674360920425,0.0011511170473600138
46.84258387889708,16.862095711416224,0.007633908197449586,0.04197498753841822,0.008112738234677615,0.020529765428944444,0.03029485911109778,0.0931335925583501,0.03223218642879464,0.1041301574305925,0.003591877285872763,0.01794249088639855,0.0002900674360920425,0.0011511170473600138
46.84255702411,16.862101840074857,0.007633908197449586,0.04197498753841822,0.008112738234677615,0.020529765428944444,0.03029485911109778,0.0931335925583501,0.03223218642879464,0.1041301574305925,0.003591877285872763,0.01794249088639855,0.0002900674360920425,0.0011511170473600138
46.84253015887602,16.86210796232297,0.013509213159638682,0.04971760373617319,0.01501024490226312,0.03141993779156572,0.12930541638697782,0.2520379682201701,0.12162177853152926,0.15221884275116543,0.008505142452638585,0.02086800992946432,0.0003425534230244905,0.0009692809628862863
46.842503433946796,16.862114037043632,0.013509213159638682,0.04971760373617319,0.01501024490226312,0.03141993779156572,0.12930541638697782,0.2520379682201701,0.12162177853152926,0.15221884275116543,0.008505142452638585,0.02086800992946432,0.0003425534230244905,0.0009692809628862863
46.84247486968693,16.862120421795947,0.013509213159638682,0.04971760373617319,0.01501024490226312,0.03141993779156572,0.12930541638697782,0.2520379682201701,0.12162177853152926,0.15221884275116543,0.008505142452638585,0.02086800992946432,0.0003425534230244905,0.0009692809628862863
46.842447356630956,16.862126441443472,0.013509213159638682,0.04971760373617319,0.01501024490226312,0.03141993779156572,0.12930541638697782,0.2520379682201701,0.12162177853152926,0.15221884275116543,0.008505142452638585,0.02086800992946432,0.0003425534230244905,0.0009692809628862863
46.84242249094522,16.862131771861215,0.013509213159638682,0.04971760373617319,0.01501024490226312,0.03141993779156572,0.12930541638697782,0.2520379682201701,0.12162177853152926,0.15221884275116543,0.008505142452638585,0.02086800992946432,0.0003425534230244905,0.0009692809628862863
46.84239721413748,16.862137083289902,0.008258573289800347,0.02045686064085544,0.009401732353763332,0.025712835426773422,0.04482458553081502,0.08400484490299712,0.015216566424252845,0.017130536396371982,0.0067822222708576445,0.009532721286517115,7.1491300059103e-05,0.0004514248567427977
46.84237032602221,16.862142636778067,0.008258573289800347,0.02045686064085544,0.009401732353763332,0.025712835426773422,0.04482458553081502,0.08400484490299712,0.015216566424252845,0.017130536396371982,0.0067822222708576445,0.009532721286517115,7.1491300059103e-05,0.0004514248567427977
46.842341404991295,16.862148648187695,0.008258573289800347,0.02045686064085544,0.009401732353763332,0.025712835426773422,0.04482458553081502,0.08400484490299712,0.015216566424252845,0.017130536396371982,0.0067822222708576445,0.009532721286517115,7.1491300059103e-05,0.0004514248567427977
46.84231427930867,16.862154345614545,0.008258573289800347,0.02045686064085544,0.009401732353763332,0.025712835426773422,0.04482458553081502,0.08400484490299712,0.015216566424252845,0.017130536396371982,0.0067822222708576445,0.009532721286517115,7.1491300059103e-05,0.0004514248567427977
46.84228652436982,16.862160236022724,0.008258573289800347,0.02045686064085544,0.009401732353763332,0.025712835426773422,0.04482458553081502,0.08400484490299712,0.015216566424252845,0.017130536396371982,0.0067822222708576445,0.009532721286517115,7.1491300059103e-05,0.0004514248567427977
46.84226009197636,16.862165904500543,0.04439257219663536,0.08661729895687052,0.007949415614745244,0.020661404142705737,0.1660357349221308,0.28263088067426023,0.43731929010284937,0.5021980749385918,0.028311682980447263,0.02750042879503749,0.0007556961325358014,0.0011660811654191953
46.84223257693319,16.862171893240724,0.04439257219663536,0.08661729895687052,0.007949415614745244,0.020661404142705737,0.1660357349221308,0.28263088067426023,0.43731929010284937,0.5021980749385918,0.028311682980447263,0.02750042879503749,0.0007556961325358014,0.0011660811654191953
46.84220402803223,16.862178236020988,0.04439257219663536,0.08661729895687052,0.007949415614745244,0.020661404142705737,0.1660357349221308,0.28263088067426023,0.43731929010284937,0.5021980749385918,0.028311682980447263,0.02750042879503749,0.0007556961325358014,0.0011660811654191953
46.84217771439933,16.86218420009251,0.04439257219663536,0.08661729895687052,0.007949415614745244,0.020661404142705737,0.1660357349221308,0.28263088067426023,0.43731929010284937,0.5021980749385918,0.028311682980447263,0.02750042879503749,0.0007556961325358014,0.0011660811654191953
46.842151571851296,16.86219023904514,0.04439257219663536,0.08661729895687052,0.007949415614745244,0.020661404142705737,0.1660357349221308,0.28263088067426023,0.43731929010284937,0.5021980749385918,0.028311682980447263,0.02750042879503749,0.0007556961325358014,0.0011660811654191953
46.842124595684034,16.862196571416668,0.012305333539819946,0.017118927877409786,0.009961099769943686,0.008238314682968125,0.08385049281933978,0.0302721016397183,0.22076528974894294,0.055871212464602665,0.004657785863349143,0.014269354290736148,0.00021694828599527668,0.00022846295295944713
46.84209788369714,16.862202768641826,0.012305333539819946,0.017118927877409786,0.009961099769943686,0.008238314682968125,0.08385049281933978,0.0302721016397183,0.22076528974894294,0.055871212464602665,0.004657785863349143,0.014269354290736148,0.00021694828599527668,0.00022846295295944713
46.84206765502981,16.86220964142075,0.012305333539819946,0.017118927877409786,0.009961099769943686,0.008238314682968125,0.08385049281933978,0.0302721016397183,0.22076528974894294,0.055871212464602665,0.004657785863349143,0.014269354290736148,0.00021694828599527668,0.00022846295295944713
46.842042363813476,16.862215273030014,0.012305333539819946,0.017118927877409786,0.009961099769943686,0.008238314682968125,0.08385049281933978,0.0302721016397183,0.22076528974894294,0.055871212464602665,0.004657785863349143,0.014269354290736148,0.00021694828599527668,0.00022846295295944713
46.84201518404233,16.86222120352395,0.012305333539819946,0.017118927877409786,0.009961099769943686,0.008238314682968125,0.08385049281933978,0.0302721016397183,0.22076528974894294,0.055871212464602665,0.004657785863349143,0.014269354290736148,0.00021694828599527668,0.00022846295295944713
46.84198623670347,16.86222735664335,0.005409559810952074,0.01831099477391928,0.01219990650063692,0.015159254962588721,0.012789202823158414,0.033224570990841654,0.02298830052725824,0.021797276294110185,0.0018683855548266997,0.008129575576226093,0.00019638480760231548,0.0005249371928301072
46.841961122871766,16.86223254404404,0.005409559810952074,0.01831099477391928,0.01219990650063692,0.015159254962588721,0.012789202823158414,0.033224570990841654,0.02298830052725824,0.021797276294110185,0.0018683855548266997,0.008129575576226093,0.00019638480760231548,0.0005249371928301072
46.84193383484882,16.862238019137056,0.005409559810952074,0.01831099477391928,0.01219990650063692,0.015159254962588721,0.012789202823158414,0.033224570990841654,0.02298830052725824,0.021797276294110185,0.0018683855548266997,0.008129575576226093,0.00019638480760231548,0.0005249371928301072
46.841908269142536,16.86224298967537,0.005409559810952074,0.01831099477391928,0.01219990650063692,0.015159254962588721,0.012789202823158414,0.033224570990841654,0.02298830052725824,0.021797276294110185,0.0018683855548266997,0.008129575576226093,0.00019638480760231548,0.0005249371928301072
46.841883402024976,16.86224775918404,0.005409559810952074,0.01831099477391928,0.01219990650063692,0.015159254962588721,0.012789202823158414,0.033224570990841654,0.02298830052725824,0.021797276294110185,0.0018683855548266997,0.008129575576226093,0.00019638480760231548,0.0005249371928301072
46.84185836197579,16.862252720166307,0.005409559810952074,0.01831099477391928,0.01219990650063692,0.015159254962588721,0.012789202823158414,0.033224570990841654,0.02298830052725824,0.021797276294110185,0.0018683855548266997,0.008129575576226093,0.00019638480760231548,0.0005249371928301072
46.84183246170772,16.86225804886801,0.005409559810952074,0.01831099477391928,0.01219990650063692,0.015159254962588721,0.012789202823158414,0.033224570990841654,0.02298830052725824,0.021797276294110185,0.0018683855548266997,0.008129575576226093,0.00019638480760231548,0.0005249371928301072
46.84180427106765,16.862264106008237,0.005409559810952074,0.01831099477391928,0.01219990650063692,0.015159254962588721,0.012789202823158414,0.033224570990841654,0.02298830052725824,0.021797276294110185,0.0018683855548266997,0.008129575576226093,0.00019638480760231548,0.0005249371928301072
46.841788089298134,16.86226769913142,0.005409559810952074,0.01831099477391928,0.01219990650063692,0.015159254962588721,0.012789202823158414,0.033224570990841654,0.02298830052725824,0.021797276294110185,0.0018683855548266997,0.008129575576226093,0.00019638480760231548,0.0005249371928301072
46.84174620958451,16.86227711596428,0.005409559810952074,0.01831099477391928,0.01219990650063692,0.015159254962588721,0.012789202823158414,0.033224570990841654,0.02298830052725824,0.021797276294110185,0.0018683855548266997,0.008129575576226093,0.00019638480760231548,0.0005249371928301072
46.84171690062978,16.862283798187335,0.012444685592781522,0.02634759348325554,0.06596460760650415,0.05174039687712184,0.020157093547425946,0.05669377561078617,0.005338203124484989,0.021485219913182287,0.0020003758150534123,0.008184475879063898,0.0077711209218151904,0.0012060309196410585
46.841667589523674,16.862295456985343,0.012444685592781522,0.02634759348325554,0.06596460760650415,0.05174039687712184,0.020157093547425946,0.05669377561078617,0.005338203124484989,0.021485219913182287,0.0020003758150534123,0.008184475879063898,0.0077711209218151904,0.0012060309196410585
46.841614887573215,16.862308921795194,0.012444685592781522,0.02634759348325554,0.06596460760650415,0.05174039687712184,0.020157093547425946,0.05669377561078617,0.005338203124484989,0.021485219913182287,0.0020003758150534123,0.008184475879063898,0.0077711209218151904,0.0012060309196410585
46.84156016880465,16.862324313974767,0.012444685592781522,0.02634759348325554,0.06596460760650415,0.05174039687712184,0.020157093547425946,0.05669377561078617,0.005338203124484989,0.021485219913182287,0.0020003758150534123,0.008184475879063898,0.0077711209218151904,0.0012060309196410585
46.84152515260392,16.862335780351476,0.012444685592781522,0.02634759348325554,0.06596460760650415,0.05174039687712184,0.020157093547425946,0.05669377561078617,0.005338203124484989,0.021485219913182287,0.0020003758150534123,0.008184475879063898,0.0077711209218151904,0.0012060309196410585
46.84148145219759,16.862349929465555,0.012444685592781522,0.02634759348325554,0.06596460760650415,0.05174039687712184,0.020157093547425946,0.05669377561078617,0.005338203124484989,0.021485219913182287,0.0020003758150534123,0.008184475879063898,0.0077711209218151904,0.0012060309196410585
46.841429584066645,16.862354535437472,0.012444685592781522,0.02634759348325554,0.06596460760650415,0.05174039687712184,0.020157093547425946,0.05669377561078617,0.005338203124484989,0.021485219913182287,0.0020003758150534123,0.008184475879063898,0.0077711209218151904,0.0012060309196410585
46.841408776735726,16.862326147322513,0.012444685592781522,0.02634759348325554,0.06596460760650415,0.05174039687712184,0.020157093547425946,0.05669377561078617,0.005338203124484989,0.021485219913182287,0.0020003758150534123,0.008184475879063898,0.0077711209218151904,0.0012060309196410585
