lat,lon,std_acc_x,median_acc_x,std_acc_y,median_acc_y,std_acc_z,median_acc_z,std_gyr_x,median_gyr_x,std_gyr_y,median_gyr_y,std_gyr_z,median_gyr_z
46.84425890941804,16.865110488614512,0.017227683088796162,0.03632755797514363,0.08182453374261955,0.10302851758101715,0.0795344250518145,0.050650931637832776,0.09665391414422875,0.09431440129924129,0.006877141271697474,0.03948255189455376,0.002751323668523358,0.0007628503226016789
46.8442559809897,16.86480683118124,0.017227683088796162,0.03632755797514363,0.08182453374261955,0.10302851758101715,0.0795344250518145,0.050650931637832776,0.09665391414422875,0.09431440129924129,0.006877141271697474,0.03948255189455376,0.002751323668523358,0.0007628503226016789
46.844306432139525,16.864376358165526,0.017227683088796162,0.03632755797514363,0.08182453374261955,0.10302851758101715,0.0795344250518145,0.050650931637832776,0.09665391414422875,0.09431440129924129,0.006877141271697474,0.03948255189455376,0.002751323668523358,0.0007628503226016789
46.84438880529694,16.864008964313772,0.017227683088796162,0.03632755797514363,0.08182453374261955,0.10302851758101715,0.0795344250518145,0.050650931637832776,0.09665391414422875,0.09431440129924129,0.006877141271697474,0.03948255189455376,0.002751323668523358,0.0007628503226016789
46.8444538058581,16.8636233382362,0.017227683088796162,0.03632755797514363,0.08182453374261955,0.10302851758101715,0.0795344250518145,0.050650931637832776,0.09665391414422875,0.09431440129924129,0.006877141271697474,0.03948255189455376,0.002751323668523358,0.0007628503226016789
46.84451428570758,16.863256863853568,0.010745313407248458,0.03632755797514363,0.3124696576674796,0.16074202949456193,0.005578374344572596,0.021772356959680376,0.02860877413484319,0.03852770112414563,0.011810367021965144,0.017738457086995164,0.01660552316695082,0.0034142071751660777
46.84457512036684,16.86287771764065,0.010745313407248458,0.03632755797514363,0.3124696576674796,0.16074202949456193,0.005578374344572596,0.021772356959680376,0.02860877413484319,0.03852770112414563,0.011810367021965144,0.017738457086995164,0.01660552316695082,0.0034142071751660777
46.844623131354155,16.86258985103327,0.010745313407248458,0.03632755797514363,0.3124696576674796,0.16074202949456193,0.005578374344572596,0.021772356959680376,0.02860877413484319,0.03852770112414563,0.011810367021965144,0.017738457086995164,0.01660552316695082,0.0034142071751660777
46.84468440090146,16.862177086818928,0.010745313407248458,0.03632755797514363,0.3124696576674796,0.16074202949456193,0.005578374344572596,0.021772356959680376,0.02860877413484319,0.03852770112414563,0.011810367021965144,0.017738457086995164,0.01660552316695082,0.0034142071751660777
46.84474378244319,16.861942203851502,0.010745313407248458,0.03632755797514363,0.3124696576674796,0.16074202949456193,0.005578374344572596,0.021772356959680376,0.02860877413484319,0.03852770112414563,0.011810367021965144,0.017738457086995164,0.01660552316695082,0.0034142071751660777
46.84481508092926,16.861800802975534,0.04481221348010808,0.03632755797514363,0.10485209783307443,0.03288267662675314,0.014936379825680824,0.04759483931387181,0.018966020283793423,0.055330052465897395,0.01280357390725493,0.05541836869640577,0.014585262462547731,0.0007628503226016789
46.84489442697761,16.861710486864986,0.04481221348010808,0.03632755797514363,0.10485209783307443,0.03288267662675314,0.014936379825680824,0.04759483931387181,0.018966020283793423,0.055330052465897395,0.01280357390725493,0.05541836869640577,0.014585262462547731,0.0007628503226016789
46.84488244896901,16.861548668289338,0.04481221348010808,0.03632755797514363,0.10485209783307443,0.03288267662675314,0.014936379825680824,0.04759483931387181,0.018966020283793423,0.055330052465897395,0.01280357390725493,0.05541836869640577,0.014585262462547731,0.0007628503226016789
46.84482263696463,16.861471606663443,0.04481221348010808,0.03632755797514363,0.10485209783307443,0.03288267662675314,0.014936379825680824,0.04759483931387181,0.018966020283793423,0.055330052465897395,0.01280357390725493,0.05541836869640577,0.014585262462547731,0.0007628503226016789
46.84477094897857,16.861425030350723,0.04481221348010808,0.03632755797514363,0.10485209783307443,0.03288267662675314,0.014936379825680824,0.04759483931387181,0.018966020283793423,0.055330052465897395,0.01280357390725493,0.05541836869640577,0.014585262462547731,0.0007628503226016789
46.844716306981354,16.86141669966202,0.07342751164939125,0.11943638198697666,0.032489806394956265,0.0628156800832546,0.07106369224110158,0.07569394293448815,0.44733406103525025,0.31812289817571254,0.04917105629763709,0.10475650642985097,0.01690990410347337,0.007653453672044327
46.84467420801611,16.861413221821724,0.07342751164939125,0.11943638198697666,0.032489806394956265,0.0628156800832546,0.07106369224110158,0.07569394293448815,0.44733406103525025,0.31812289817571254,0.04917105629763709,0.10475650642985097,0.01690990410347337,0.007653453672044327
46.84463557057808,16.86141235084374,0.07342751164939125,0.11943638198697666,0.032489806394956265,0.0628156800832546,0.07106369224110158,0.07569394293448815,0.44733406103525025,0.31812289817571254,0.04917105629763709,0.10475650642985097,0.01690990410347337,0.007653453672044327
46.84457620678113,16.86141226567532,0.07342751164939125,0.11943638198697666,0.032489806394956265,0.0628156800832546,0.07106369224110158,0.07569394293448815,0.44733406103525025,0.31812289817571254,0.04917105629763709,0.10475650642985097,0.01690990410347337,0.007653453672044327
46.84453632429081,16.86139856413225,0.07342751164939125,0.11943638198697666,0.032489806394956265,0.0628156800832546,0.07106369224110158,0.07569394293448815,0.44733406103525025,0.31812289817571254,0.04917105629763709,0.10475650642985097,0.01690990410347337,0.007653453672044327
46.8444715200655,16.861349654159604,0.038323336631096105,0.03632755797514363,0.03049033541532072,0.08008287025698288,0.0032603949976783135,0.02889484757476102,0.013730137874659742,0.042005717264625715,0.005439586331294567,0.03769268970129504,0.02888578601823092,0.0007628503226016789
46.84443688818905,16.86119703127454,0.038323336631096105,0.03632755797514363,0.03049033541532072,0.08008287025698288,0.0032603949976783135,0.02889484757476102,0.013730137874659742,0.042005717264625715,0.005439586331294567,0.03769268970129504,0.02888578601823092,0.0007628503226016789
46.84446968494336,16.86110671438223,0.038323336631096105,0.03632755797514363,0.03049033541532072,0.08008287025698288,0.0032603949976783135,0.02889484757476102,0.013730137874659742,0.042005717264625715,0.005439586331294567,0.03769268970129504,0.02888578601823092,0.0007628503226016789
46.84452103536405,16.860988354901004,0.038323336631096105,0.03632755797514363,0.03049033541532072,0.08008287025698288,0.0032603949976783135,0.02889484757476102,0.013730137874659742,0.042005717264625715,0.005439586331294567,0.03769268970129504,0.02888578601823092,0.0007628503226016789
46.84459184552019,16.860862302898592,0.038323336631096105,0.03632755797514363,0.03049033541532072,0.08008287025698288,0.0032603949976783135,0.02889484757476102,0.013730137874659742,0.042005717264625715,0.005439586331294567,0.03769268970129504,0.02888578601823092,0.0007628503226016789
46.844676231679514,16.86071042142347,0.045364221199135545,0.08609921735683787,0.17896272840555608,0.1115821727069814,0.026113845486348517,0.04985524359395249,0.024058314172513466,0.045850819615776854,0.025850333364304715,0.05105002398685232,0.00656033357811023,0.006763747169063828
46.844744752162555,16.86052082413996,0.045364221199135545,0.08609921735683787,0.17896272840555608,0.1115821727069814,0.026113845486348517,0.04985524359395249,0.024058314172513466,0.045850819615776854,0.025850333364304715,0.05105002398685232,0.00656033357811023,0.006763747169063828
46.84479539665722,16.86018217629158,0.045364221199135545,0.08609921735683787,0.17896272840555608,0.1115821727069814,0.026113845486348517,0.04985524359395249,0.024058314172513466,0.045850819615776854,0.025850333364304715,0.05105002398685232,0.00656033357811023,0.006763747169063828
46.844841494194355,16.859684728186913,0.045364221199135545,0.08609921735683787,0.17896272840555608,0.1115821727069814,0.026113845486348517,0.04985524359395249,0.024058314172513466,0.045850819615776854,0.025850333364304715,0.05105002398685232,0.00656033357811023,0.006763747169063828
46.84481487423771,16.85911303520841,0.045364221199135545,0.08609921735683787,0.17896272840555608,0.1115821727069814,0.026113845486348517,0.04985524359395249,0.024058314172513466,0.045850819615776854,0.025850333364304715,0.05105002398685232,0.00656033357811023,0.006763747169063828
46.844778561058504,16.858488104364877,0.045364221199135545,0.08609921735683787,0.17896272840555608,0.1115821727069814,0.026113845486348517,0.04985524359395249,0.024058314172513466,0.045850819615776854,0.025850333364304715,0.05105002398685232,0.00656033357811023,0.006763747169063828
46.844734899596595,16.857929744480007,0.045364221199135545,0.08609921735683787,0.17896272840555608,0.1115821727069814,0.026113845486348517,0.04985524359395249,0.024058314172513466,0.045850819615776854,0.025850333364304715,0.05105002398685232,0.00656033357811023,0.006763747169063828
46.84468670114395,16.857356085954418,0.045364221199135545,0.08609921735683787,0.17896272840555608,0.1115821727069814,0.026113845486348517,0.04985524359395249,0.024058314172513466,0.045850819615776854,0.025850333364304715,0.05105002398685232,0.00656033357811023,0.006763747169063828
46.84464851096041,16.85695020137485,0.045364221199135545,0.08609921735683787,0.17896272840555608,0.1115821727069814,0.026113845486348517,0.04985524359395249,0.024058314172513466,0.045850819615776854,0.025850333364304715,0.05105002398685232,0.00656033357811023,0.006763747169063828
46.844625558108056,16.856693318763064,0.045364221199135545,0.08609921735683787,0.17896272840555608,0.1115821727069814,0.026113845486348517,0.04985524359395249,0.024058314172513466,0.045850819615776854,0.025850333364304715,0.05105002398685232,0.00656033357811023,0.006763747169063828
46.844614262316256,16.856561200829066,0.03203015655203724,0.03632755797514363,0.19871986829535682,0.1753213441826659,0.03119816607033578,0.050092423160550355,0.03602562137810677,0.05164953159020361,0.0428110157205172,0.09260686172352778,0.010367625043854458,0.0007628503226016789
46.844603677537954,16.85643714430315,0.03203015655203724,0.03632755797514363,0.19871986829535682,0.1753213441826659,0.03119816607033578,0.050092423160550355,0.03602562137810677,0.05164953159020361,0.0428110157205172,0.09260686172352778,0.010367625043854458,0.0007628503226016789
46.84455200319571,16.856210422330793,0.03203015655203724,0.03632755797514363,0.19871986829535682,0.1753213441826659,0.03119816607033578,0.050092423160550355,0.03602562137810677,0.05164953159020361,0.0428110157205172,0.09260686172352778,0.010367625043854458,0.0007628503226016789
46.84451046562056,16.856187890282367,0.03203015655203724,0.03632755797514363,0.19871986829535682,0.1753213441826659,0.03119816607033578,0.050092423160550355,0.03602562137810677,0.05164953159020361,0.0428110157205172,0.09260686172352778,0.010367625043854458,0.0007628503226016789
46.8444776647399,16.85618981650131,0.03203015655203724,0.03632755797514363,0.19871986829535682,0.1753213441826659,0.03119816607033578,0.050092423160550355,0.03602562137810677,0.05164953159020361,0.0428110157205172,0.09260686172352778,0.010367625043854458,0.0007628503226016789
46.84440735461355,16.856113254188045,0.0633827394037992,0.03632755797514363,0.03529855152008406,0.05907547647271884,0.09136100597926922,0.12795709564413027,0.017768692813084675,0.04106170864027407,0.036157404661015684,0.049618565652875445,0.0089075808668129,0.002400396127825147
46.84437032387371,16.85608865559103,0.0633827394037992,0.03632755797514363,0.03529855152008406,0.05907547647271884,0.09136100597926922,0.12795709564413027,0.017768692813084675,0.04106170864027407,0.036157404661015684,0.049618565652875445,0.0089075808668129,0.002400396127825147
46.84431963090041,16.856055101290114,0.0633827394037992,0.03632755797514363,0.03529855152008406,0.05907547647271884,0.09136100597926922,0.12795709564413027,0.017768692813084675,0.04106170864027407,0.036157404661015684,0.049618565652875445,0.0089075808668129,0.002400396127825147
46.84426546170328,16.85601458485546,0.0633827394037992,0.03632755797514363,0.03529855152008406,0.05907547647271884,0.09136100597926922,0.12795709564413027,0.017768692813084675,0.04106170864027407,0.036157404661015684,0.049618565652875445,0.0089075808668129,0.002400396127825147
46.84422605987491,16.85598439009571,0.0633827394037992,0.03632755797514363,0.03529855152008406,0.05907547647271884,0.09136100597926922,0.12795709564413027,0.017768692813084675,0.04106170864027407,0.036157404661015684,0.049618565652875445,0.0089075808668129,0.002400396127825147
46.844207522556005,16.855970833569433,0.017603328338251737,0.022257158919050155,0.028922159292210925,0.04696102495970142,0.06977909998641614,0.016834534911347177,0.011474950666947818,0.013968850597550696,0.017204700861617267,0.029223815701873688,0.0027123335338845337,0.000302266008806645
46.84416910555001,16.855944217645177,0.017603328338251737,0.022257158919050155,0.028922159292210925,0.04696102495970142,0.06977909998641614,0.016834534911347177,0.011474950666947818,0.013968850597550696,0.017204700861617267,0.029223815701873688,0.0027123335338845337,0.000302266008806645
46.84415105901588,16.85593259069041,0.017603328338251737,0.022257158919050155,0.028922159292210925,0.04696102495970142,0.06977909998641614,0.016834534911347177,0.011474950666947818,0.013968850597550696,0.017204700861617267,0.029223815701873688,0.0027123335338845337,0.000302266008806645
46.844117173943445,16.855911204551653,0.017603328338251737,0.022257158919050155,0.028922159292210925,0.04696102495970142,0.06977909998641614,0.016834534911347177,0.011474950666947818,0.013968850597550696,0.017204700861617267,0.029223815701873688,0.0027123335338845337,0.000302266008806645
46.844079535455414,16.85588796173917,0.017603328338251737,0.022257158919050155,0.028922159292210925,0.04696102495970142,0.06977909998641614,0.016834534911347177,0.011474950666947818,0.013968850597550696,0.017204700861617267,0.029223815701873688,0.0027123335338845337,0.000302266008806645
46.84406427938508,16.85587873406973,0.017603328338251737,0.022257158919050155,0.028922159292210925,0.04696102495970142,0.06977909998641614,0.016834534911347177,0.011474950666947818,0.013968850597550696,0.017204700861617267,0.029223815701873688,0.0027123335338845337,0.000302266008806645
46.84402333912267,16.855853956337135,0.017603328338251737,0.022257158919050155,0.028922159292210925,0.04696102495970142,0.06977909998641614,0.016834534911347177,0.011474950666947818,0.013968850597550696,0.017204700861617267,0.029223815701873688,0.0027123335338845337,0.000302266008806645
46.8439864505614,16.855831423176834,0.017603328338251737,0.022257158919050155,0.028922159292210925,0.04696102495970142,0.06977909998641614,0.016834534911347177,0.011474950666947818,0.013968850597550696,0.017204700861617267,0.029223815701873688,0.0027123335338845337,0.000302266008806645
46.843963422905944,16.855817223375833,0.017603328338251737,0.022257158919050155,0.028922159292210925,0.04696102495970142,0.06977909998641614,0.016834534911347177,0.011474950666947818,0.013968850597550696,0.017204700861617267,0.029223815701873688,0.0027123335338845337,0.000302266008806645
46.84391034835121,16.855784372453098,0.017603328338251737,0.022257158919050155,0.028922159292210925,0.04696102495970142,0.06977909998641614,0.016834534911347177,0.011474950666947818,0.013968850597550696,0.017204700861617267,0.029223815701873688,0.0027123335338845337,0.000302266008806645
46.843881169456466,16.85576623168893,0.017603328338251737,0.022257158919050155,0.028922159292210925,0.04696102495970142,0.06977909998641614,0.016834534911347177,0.011474950666947818,0.013968850597550696,0.017204700861617267,0.029223815701873688,0.0027123335338845337,0.000302266008806645
46.84385251116835,16.855748561487513,0.017603328338251737,0.022257158919050155,0.028922159292210925,0.04696102495970142,0.06977909998641614,0.016834534911347177,0.011474950666947818,0.013968850597550696,0.017204700861617267,0.029223815701873688,0.0027123335338845337,0.000302266008806645
46.84380153649325,16.85571777086564,0.017603328338251737,0.022257158919050155,0.028922159292210925,0.04696102495970142,0.06977909998641614,0.016834534911347177,0.011474950666947818,0.013968850597550696,0.017204700861617267,0.029223815701873688,0.0027123335338845337,0.000302266008806645
46.843760875257,16.855693744598657,0.017603328338251737,0.022257158919050155,0.028922159292210925,0.04696102495970142,0.06977909998641614,0.016834534911347177,0.011474950666947818,0.013968850597550696,0.017204700861617267,0.029223815701873688,0.0027123335338845337,0.000302266008806645
46.84372013760823,16.855670055110473,0.017603328338251737,0.022257158919050155,0.028922159292210925,0.04696102495970142,0.06977909998641614,0.016834534911347177,0.011474950666947818,0.013968850597550696,0.017204700861617267,0.029223815701873688,0.0027123335338845337,0.000302266008806645
46.84369541059614,16.855656130955843,0.07479858281221276,0.09283758655076071,0.05749737440551051,0.010286622825019078,0.19123213448200416,0.011784703955318797,0.026443140921548286,0.016042507076785385,0.06442801395598208,0.02613119505189677,0.009991537459346802,0.005460925213498305
46.843658408268595,16.85563620633637,0.07479858281221276,0.09283758655076071,0.05749737440551051,0.010286622825019078,0.19123213448200416,0.011784703955318797,0.026443140921548286,0.016042507076785385,0.06442801395598208,0.02613119505189677,0.009991537459346802,0.005460925213498305
46.843622439392924,16.855617430736753,0.07479858281221276,0.09283758655076071,0.05749737440551051,0.010286622825019078,0.19123213448200416,0.011784703955318797,0.026443140921548286,0.016042507076785385,0.06442801395598208,0.02613119505189677,0.009991537459346802,0.005460925213498305
46.843596452771116,16.85560302485526,0.07479858281221276,0.09283758655076071,0.05749737440551051,0.010286622825019078,0.19123213448200416,0.011784703955318797,0.026443140921548286,0.016042507076785385,0.06442801395598208,0.02613119505189677,0.009991537459346802,0.005460925213498305
46.8435567459726,16.855579332213473,0.07479858281221276,0.09283758655076071,0.05749737440551051,0.010286622825019078,0.19123213448200416,0.011784703955318797,0.026443140921548286,0.016042507076785385,0.06442801395598208,0.02613119505189677,0.009991537459346802,0.005460925213498305
46.84352476157226,16.85555881652708,0.012814506335275701,0.009518259749156908,0.010404039042373732,0.00838614512376186,0.007634027305404719,0.014980117552113986,0.008829990674058772,0.010637013030074385,0.0034433158893724366,0.013379869417186795,0.0019750119359525408,0.00035355963328523635
46.84350010815227,16.855542196066285,0.012814506335275701,0.009518259749156908,0.010404039042373732,0.00838614512376186,0.007634027305404719,0.014980117552113986,0.008829990674058772,0.010637013030074385,0.0034433158893724366,0.013379869417186795,0.0019750119359525408,0.00035355963328523635
46.84347356063642,16.85552355997851,0.012814506335275701,0.009518259749156908,0.010404039042373732,0.00838614512376186,0.007634027305404719,0.014980117552113986,0.008829990674058772,0.010637013030074385,0.0034433158893724366,0.013379869417186795,0.0019750119359525408,0.00035355963328523635
46.84343610540181,16.855495857463687,0.012814506335275701,0.009518259749156908,0.010404039042373732,0.00838614512376186,0.007634027305404719,0.014980117552113986,0.008829990674058772,0.010637013030074385,0.0034433158893724366,0.013379869417186795,0.0019750119359525408,0.00035355963328523635
46.84340171852892,16.85546909839943,0.012814506335275701,0.009518259749156908,0.010404039042373732,0.00838614512376186,0.007634027305404719,0.014980117552113986,0.008829990674058772,0.010637013030074385,0.0034433158893724366,0.013379869417186795,0.0019750119359525408,0.00035355963328523635
46.84338300962316,16.855454081172606,0.012814506335275701,0.009518259749156908,0.010404039042373732,0.00838614512376186,0.007634027305404719,0.014980117552113986,0.008829990674058772,0.010637013030074385,0.0034433158893724366,0.013379869417186795,0.0019750119359525408,0.00035355963328523635
46.843334482869196,16.85541455711958,0.012814506335275701,0.009518259749156908,0.010404039042373732,0.00838614512376186,0.007634027305404719,0.014980117552113986,0.008829990674058772,0.010637013030074385,0.0034433158893724366,0.013379869417186795,0.0019750119359525408,0.00035355963328523635
46.84331478698922,16.855398344937825,0.012814506335275701,0.009518259749156908,0.010404039042373732,0.00838614512376186,0.007634027305404719,0.014980117552113986,0.008829990674058772,0.010637013030074385,0.0034433158893724366,0.013379869417186795,0.0019750119359525408,0.00035355963328523635
46.843286146689906,16.85537464177655,0.012814506335275701,0.009518259749156908,0.010404039042373732,0.00838614512376186,0.007634027305404719,0.014980117552113986,0.008829990674058772,0.010637013030074385,0.0034433158893724366,0.013379869417186795,0.0019750119359525408,0.00035355963328523635
46.843254089741706,16.855348436556614,0.012814506335275701,0.009518259749156908,0.010404039042373732,0.00838614512376186,0.007634027305404719,0.014980117552113986,0.008829990674058772,0.010637013030074385,0.0034433158893724366,0.013379869417186795,0.0019750119359525408,0.00035355963328523635
46.84322237848603,16.85532307732718,0.030556678650576808,0.0310121539075598,0.00923295288923787,0.02564411853164822,0.07106334952225488,0.08791616291385063,0.008950071667625188,0.020026231057081456,0.022815524781239813,0.027908656347743043,0.00024583204783932926,0.0003901623989204602
46.84319692952966,16.855303114800552,0.030556678650576808,0.0310121539075598,0.00923295288923787,0.02564411853164822,0.07106334952225488,0.08791616291385063,0.008950071667625188,0.020026231057081456,0.022815524781239813,0.027908656347743043,0.00024583204783932926,0.0003901623989204602
46.84316769069922,16.85528046457944,0.030556678650576808,0.0310121539075598,0.00923295288923787,0.02564411853164822,0.07106334952225488,0.08791616291385063,0.008950071667625188,0.020026231057081456,0.022815524781239813,0.027908656347743043,0.00024583204783932926,0.0003901623989204602
46.84314308602088,16.855261364302052,0.030556678650576808,0.0310121539075598,0.00923295288923787,0.02564411853164822,0.07106334952225488,0.08791616291385063,0.008950071667625188,0.020026231057081456,0.022815524781239813,0.027908656347743043,0.00024583204783932926,0.0003901623989204602
46.843118192050355,16.855241986462733,0.030556678650576808,0.0310121539075598,0.00923295288923787,0.02564411853164822,0.07106334952225488,0.08791616291385063,0.008950071667625188,0.020026231057081456,0.022815524781239813,0.027908656347743043,0.00024583204783932926,0.0003901623989204602
46.84309292112472,16.855222262330678,0.003161787913082151,0.006451820895046199,0.010953130140365442,0.018217334342639068,0.0056289865851991945,0.02152219953741978,0.00975156668273397,0.01239659511298986,0.0022666237095309984,0.011709310350149769,0.00012945582148473917,0.00018319077908512615
46.843064519631405,16.855200001752024,0.003161787913082151,0.006451820895046199,0.010953130140365442,0.018217334342639068,0.0056289865851991945,0.02152219953741978,0.00975156668273397,0.01239659511298986,0.0022666237095309984,0.011709310350149769,0.00012945582148473917,0.00018319077908512615
46.84303747908924,16.855178565694402,0.003161787913082151,0.006451820895046199,0.010953130140365442,0.018217334342639068,0.0056289865851991945,0.02152219953741978,0.00975156668273397,0.01239659511298986,0.0022666237095309984,0.011709310350149769,0.00012945582148473917,0.00018319077908512615
46.843012108287994,16.855158215532537,0.003161787913082151,0.006451820895046199,0.010953130140365442,0.018217334342639068,0.0056289865851991945,0.02152219953741978,0.00975156668273397,0.01239659511298986,0.0022666237095309984,0.011709310350149769,0.00012945582148473917,0.00018319077908512615
46.84298270047731,16.85513433421613,0.003161787913082151,0.006451820895046199,0.010953130140365442,0.018217334342639068,0.0056289865851991945,0.02152219953741978,0.00975156668273397,0.01239659511298986,0.0022666237095309984,0.011709310350149769,0.00012945582148473917,0.00018319077908512615
46.842957271057045,16.855113431714575,0.003161787913082151,0.006451820895046199,0.010953130140365442,0.018217334342639068,0.0056289865851991945,0.02152219953741978,0.00975156668273397,0.01239659511298986,0.0022666237095309984,0.011709310350149769,0.00012945582148473917,0.00018319077908512615
46.84292976069994,16.855090608749112,0.003161787913082151,0.006451820895046199,0.010953130140365442,0.018217334342639068,0.0056289865851991945,0.02152219953741978,0.00975156668273397,0.01239659511298986,0.0022666237095309984,0.011709310350149769,0.00012945582148473917,0.00018319077908512615
46.84290388390437,16.855068955334524,0.003161787913082151,0.006451820895046199,0.010953130140365442,0.018217334342639068,0.0056289865851991945,0.02152219953741978,0.00975156668273397,0.01239659511298986,0.0022666237095309984,0.011709310350149769,0.00012945582148473917,0.00018319077908512615
46.84287587410298,16.855045312482932,0.003161787913082151,0.006451820895046199,0.010953130140365442,0.018217334342639068,0.0056289865851991945,0.02152219953741978,0.00975156668273397,0.01239659511298986,0.0022666237095309984,0.011709310350149769,0.00012945582148473917,0.00018319077908512615
46.84285058771003,16.85502379353658,0.003161787913082151,0.006451820895046199,0.010953130140365442,0.018217334342639068,0.0056289865851991945,0.02152219953741978,0.00975156668273397,0.01239659511298986,0.0022666237095309984,0.011709310350149769,0.00012945582148473917,0.00018319077908512615
46.84282378277075,16.85500091051376,0.003161787913082151,0.006451820895046199,0.010953130140365442,0.018217334342639068,0.0056289865851991945,0.02152219953741978,0.00975156668273397,0.01239659511298986,0.0022666237095309984,0.011709310350149769,0.00012945582148473917,0.00018319077908512615
46.84279787540256,16.85497875585134,0.003161787913082151,0.006451820895046199,0.010953130140365442,0.018217334342639068,0.0056289865851991945,0.02152219953741978,0.00975156668273397,0.01239659511298986,0.0022666237095309984,0.011709310350149769,0.00012945582148473917,0.00018319077908512615
46.84277170734551,16.854956340556228,0.003161787913082151,0.006451820895046199,0.010953130140365442,0.018217334342639068,0.0056289865851991945,0.02152219953741978,0.00975156668273397,0.01239659511298986,0.0022666237095309984,0.011709310350149769,0.00012945582148473917,0.00018319077908512615
46.84274218935273,16.854931002919663,0.003161787913082151,0.006451820895046199,0.010953130140365442,0.018217334342639068,0.0056289865851991945,0.02152219953741978,0.00975156668273397,0.01239659511298986,0.0022666237095309984,0.011709310350149769,0.00012945582148473917,0.00018319077908512615
46.842716660469215,16.854908972729277,0.003161787913082151,0.006451820895046199,0.010953130140365442,0.018217334342639068,0.0056289865851991945,0.02152219953741978,0.00975156668273397,0.01239659511298986,0.0022666237095309984,0.011709310350149769,0.00012945582148473917,0.00018319077908512615
46.84269074598498,16.854886473026507,0.07347431994238691,0.03632755797514363,0.04769373985316203,0.0590948793270017,0.17230289050505282,0.21502248860676068,0.031990938838672635,0.042625893683191605,0.17283553868112564,0.18271166186590893,0.0005572741905504436,0.0007628503226016789
46.84267052654488,16.8548688317506,0.07347431994238691,0.03632755797514363,0.04769373985316203,0.0590948793270017,0.17230289050505282,0.21502248860676068,0.031990938838672635,0.042625893683191605,0.17283553868112564,0.18271166186590893,0.0005572741905504436,0.0007628503226016789
46.84263442270889,16.854837043868677,0.07347431994238691,0.03632755797514363,0.04769373985316203,0.0590948793270017,0.17230289050505282,0.21502248860676068,0.031990938838672635,0.042625893683191605,0.17283553868112564,0.18271166186590893,0.0005572741905504436,0.0007628503226016789
46.8426103670624,16.854815384458348,0.07347431994238691,0.03632755797514363,0.04769373985316203,0.0590948793270017,0.17230289050505282,0.21502248860676068,0.031990938838672635,0.042625893683191605,0.17283553868112564,0.18271166186590893,0.0005572741905504436,0.0007628503226016789
46.84258577416724,16.8547927107028,0.07347431994238691,0.03632755797514363,0.04769373985316203,0.0590948793270017,0.17230289050505282,0.21502248860676068,0.031990938838672635,0.042625893683191605,0.17283553868112564,0.18271166186590893,0.0005572741905504436,0.0007628503226016789
46.842548771950625,16.854757572645735,0.04229935576261183,0.009402061770359075,0.02244886231467846,0.012961975375099112,0.063494193776513,0.02317937091688291,0.04076276057195823,0.017185632037204447,0.036503555661449416,0.01421886345402211,0.0002493246082469354,0.0002954014817540859
46.842523432203734,16.854732911548794,0.04229935576261183,0.009402061770359075,0.02244886231467846,0.012961975375099112,0.063494193776513,0.02317937091688291,0.04076276057195823,0.017185632037204447,0.036503555661449416,0.01421886345402211,0.0002493246082469354,0.0002954014817540859
46.842504752464954,16.854714749195168,0.04229935576261183,0.009402061770359075,0.02244886231467846,0.012961975375099112,0.063494193776513,0.02317937091688291,0.04076276057195823,0.017185632037204447,0.036503555661449416,0.01421886345402211,0.0002493246082469354,0.0002954014817540859
46.842472625519626,16.85468356906887,0.04229935576261183,0.009402061770359075,0.02244886231467846,0.012961975375099112,0.063494193776513,0.02317937091688291,0.04076276057195823,0.017185632037204447,0.036503555661449416,0.01421886345402211,0.0002493246082469354,0.0002954014817540859
46.84244851144887,16.85466020412048,0.04229935576261183,0.009402061770359075,0.02244886231467846,0.012961975375099112,0.063494193776513,0.02317937091688291,0.04076276057195823,0.017185632037204447,0.036503555661449416,0.01421886345402211,0.0002493246082469354,0.0002954014817540859
46.84241674502642,16.854629446554895,0.04229935576261183,0.009402061770359075,0.02244886231467846,0.012961975375099112,0.063494193776513,0.02317937091688291,0.04076276057195823,0.017185632037204447,0.036503555661449416,0.01421886345402211,0.0002493246082469354,0.0002954014817540859
46.84238984703225,16.854603361873842,0.04229935576261183,0.009402061770359075,0.02244886231467846,0.012961975375099112,0.063494193776513,0.02317937091688291,0.04076276057195823,0.017185632037204447,0.036503555661449416,0.01421886345402211,0.0002493246082469354,0.0002954014817540859
46.84236825098276,16.854582388909876,0.04229935576261183,0.009402061770359075,0.02244886231467846,0.012961975375099112,0.063494193776513,0.02317937091688291,0.04076276057195823,0.017185632037204447,0.036503555661449416,0.01421886345402211,0.0002493246082469354,0.0002954014817540859
46.84233370686091,16.854548781037018,0.04229935576261183,0.009402061770359075,0.02244886231467846,0.012961975375099112,0.063494193776513,0.02317937091688291,0.04076276057195823,0.017185632037204447,0.036503555661449416,0.01421886345402211,0.0002493246082469354,0.0002954014817540859
46.842308980271696,16.854524575293876,0.04229935576261183,0.009402061770359075,0.02244886231467846,0.012961975375099112,0.063494193776513,0.02317937091688291,0.04076276057195823,0.017185632037204447,0.036503555661449416,0.01421886345402211,0.0002493246082469354,0.0002954014817540859
46.84228103610661,16.8544969492615,0.06629914211136852,0.10192833795681813,0.03881416588786175,0.034256642544908525,0.09592697310200869,0.10379326740099896,0.06025174153734241,0.06964524650590605,0.06525549920243899,0.12970098786672887,0.0005467985025593673,0.0010368318122252417
46.84225598113414,16.85447192424752,0.06629914211136852,0.10192833795681813,0.03881416588786175,0.034256642544908525,0.09592697310200869,0.10379326740099896,0.06025174153734241,0.06964524650590605,0.06525549920243899,0.12970098786672887,0.0005467985025593673,0.0010368318122252417
46.84223002047061,16.85444572939211,0.06629914211136852,0.10192833795681813,0.03881416588786175,0.034256642544908525,0.09592697310200869,0.10379326740099896,0.06025174153734241,0.06964524650590605,0.06525549920243899,0.12970098786672887,0.0005467985025593673,0.0010368318122252417
46.84219802462795,16.854412988915367,0.06629914211136852,0.10192833795681813,0.03881416588786175,0.034256642544908525,0.09592697310200869,0.10379326740099896,0.06025174153734241,0.06964524650590605,0.06525549920243899,0.12970098786672887,0.0005467985025593673,0.0010368318122252417
46.842172245449035,16.854386216228868,0.06629914211136852,0.10192833795681813,0.03881416588786175,0.034256642544908525,0.09592697310200869,0.10379326740099896,0.06025174153734241,0.06964524650590605,0.06525549920243899,0.12970098786672887,0.0005467985025593673,0.0010368318122252417
46.842144560375225,16.85435706543037,0.026000821851332536,0.017739830822708438,0.036792935373058534,0.022314407511059623,0.018816393416326904,0.027270758437528037,0.013097310705289734,0.01541922628683361,0.013735673960930993,0.01111099823180589,0.003140715387097755,0.0013079382296599757
46.842104054056136,16.854314111628163,0.026000821851332536,0.017739830822708438,0.036792935373058534,0.022314407511059623,0.018816393416326904,0.027270758437528037,0.013097310705289734,0.01541922628683361,0.013735673960930993,0.01111099823180589,0.003140715387097755,0.0013079382296599757
46.84208436129081,16.854293411519127,0.026000821851332536,0.017739830822708438,0.036792935373058534,0.022314407511059623,0.018816393416326904,0.027270758437528037,0.013097310705289734,0.01541922628683361,0.013735673960930993,0.01111099823180589,0.003140715387097755,0.0013079382296599757
46.842055246312675,16.854263006653955,0.026000821851332536,0.017739830822708438,0.036792935373058534,0.022314407511059623,0.018816393416326904,0.027270758437528037,0.013097310705289734,0.01541922628683361,0.013735673960930993,0.01111099823180589,0.003140715387097755,0.0013079382296599757
46.84202684002268,16.854233607441614,0.026000821851332536,0.017739830822708438,0.036792935373058534,0.022314407511059623,0.018816393416326904,0.027270758437528037,0.013097310705289734,0.01541922628683361,0.013735673960930993,0.01111099823180589,0.003140715387097755,0.0013079382296599757
46.84200596616126,16.85421218117642,0.026000821851332536,0.017739830822708438,0.036792935373058534,0.022314407511059623,0.018816393416326904,0.027270758437528037,0.013097310705289734,0.01541922628683361,0.013735673960930993,0.01111099823180589,0.003140715387097755,0.0013079382296599757
46.8419692321468,16.854175042474388,0.026000821851332536,0.017739830822708438,0.036792935373058534,0.022314407511059623,0.018816393416326904,0.027270758437528037,0.013097310705289734,0.01541922628683361,0.013735673960930993,0.01111099823180589,0.003140715387097755,0.0013079382296599757
46.84193659078812,16.854142568289134,0.026000821851332536,0.017739830822708438,0.036792935373058534,0.022314407511059623,0.018816393416326904,0.027270758437528037,0.013097310705289734,0.01541922628683361,0.013735673960930993,0.01111099823180589,0.003140715387097755,0.0013079382296599757
46.84189500146852,16.854102354317973,0.026000821851332536,0.017739830822708438,0.036792935373058534,0.022314407511059623,0.018816393416326904,0.027270758437528037,0.013097310705289734,0.01541922628683361,0.013735673960930993,0.01111099823180589,0.003140715387097755,0.0013079382296599757
46.84186955334102,16.854078650207537,0.026000821851332536,0.017739830822708438,0.036792935373058534,0.022314407511059623,0.018816393416326904,0.027270758437528037,0.013097310705289734,0.01541922628683361,0.013735673960930993,0.01111099823180589,0.003140715387097755,0.0013079382296599757
46.8418417911788,16.854053737635944,0.026000821851332536,0.017739830822708438,0.036792935373058534,0.022314407511059623,0.018816393416326904,0.027270758437528037,0.013097310705289734,0.01541922628683361,0.013735673960930993,0.01111099823180589,0.003140715387097755,0.0013079382296599757
46.84181801795063,16.854034041234286,0.026000821851332536,0.017739830822708438,0.036792935373058534,0.022314407511059623,0.018816393416326904,0.027270758437528037,0.013097310705289734,0.01541922628683361,0.013735673960930993,0.01111099823180589,0.003140715387097755,0.0013079382296599757
46.841779945317946,16.854005998378504,0.026000821851332536,0.017739830822708438,0.036792935373058534,0.022314407511059623,0.018816393416326904,0.027270758437528037,0.013097310705289734,0.01541922628683361,0.013735673960930993,0.01111099823180589,0.003140715387097755,0.0013079382296599757
46.84173465149227,16.853977062722926,0.026000821851332536,0.017739830822708438,0.036792935373058534,0.022314407511059623,0.018816393416326904,0.027270758437528037,0.013097310705289734,0.01541922628683361,0.013735673960930993,0.01111099823180589,0.003140715387097755,0.0013079382296599757
46.84171118452972,16.853964017346552,0.026000821851332536,0.017739830822708438,0.036792935373058534,0.022314407511059623,0.018816393416326904,0.027270758437528037,0.013097310705289734,0.01541922628683361,0.013735673960930993,0.01111099823180589,0.003140715387097755,0.0013079382296599757
46.8416865630012,16.853951622742432,0.024109949489256696,0.045264930391149386,0.5079001590648139,0.02811123461476736,0.0004541185980459978,0.006540720163992052,0.0014300356647647394,0.00723437926469726,0.005554439875152569,0.009765408803945939,0.00635969256950891,0.003982940348542367
46.84164227784733,16.853931794182625,0.024109949489256696,0.045264930391149386,0.5079001590648139,0.02811123461476736,0.0004541185980459978,0.006540720163992052,0.0014300356647647394,0.00723437926469726,0.005554439875152569,0.009765408803945939,0.00635969256950891,0.003982940348542367
46.84161240125037,16.853919426973995,0.024109949489256696,0.045264930391149386,0.5079001590648139,0.02811123461476736,0.0004541185980459978,0.006540720163992052,0.0014300356647647394,0.00723437926469726,0.005554439875152569,0.009765408803945939,0.00635969256950891,0.003982940348542367
46.84157664855257,16.853906427519014,0.024109949489256696,0.045264930391149386,0.5079001590648139,0.02811123461476736,0.0004541185980459978,0.006540720163992052,0.0014300356647647394,0.00723437926469726,0.005554439875152569,0.009765408803945939,0.00635969256950891,0.003982940348542367
46.84152357711193,16.8538965913907,0.024109949489256696,0.045264930391149386,0.5079001590648139,0.02811123461476736,0.0004541185980459978,0.006540720163992052,0.0014300356647647394,0.00723437926469726,0.005554439875152569,0.009765408803945939,0.00635969256950891,0.003982940348542367
46.841452884191796,16.853904421621387,0.039421721779954205,0.039837494519558994,0.2878123129798459,0.047008864881634554,0.0068877091877915485,0.016275783036580727,0.006679841036307755,0.017834105254230407,0.013019783048503408,0.028493736577667385,0.027032983101114526,0.006482672318035434
46.8413868527557,16.853907117436762,0.039421721779954205,0.039837494519558994,0.2878123129798459,0.047008864881634554,0.0068877091877915485,0.016275783036580727,0.006679841036307755,0.017834105254230407,0.013019783048503408,0.028493736577667385,0.027032983101114526,0.006482672318035434
46.84133268013525,16.853901366374007,0.039421721779954205,0.039837494519558994,0.2878123129798459,0.047008864881634554,0.0068877091877915485,0.016275783036580727,0.006679841036307755,0.017834105254230407,0.013019783048503408,0.028493736577667385,0.027032983101114526,0.006482672318035434
46.84129294589611,16.853888435189706,0.039421721779954205,0.039837494519558994,0.2878123129798459,0.047008864881634554,0.0068877091877915485,0.016275783036580727,0.006679841036307755,0.017834105254230407,0.013019783048503408,0.028493736577667385,0.027032983101114526,0.006482672318035434
46.84125306070338,16.853873647789452,0.039421721779954205,0.039837494519558994,0.2878123129798459,0.047008864881634554,0.0068877091877915485,0.016275783036580727,0.006679841036307755,0.017834105254230407,0.013019783048503408,0.028493736577667385,0.027032983101114526,0.006482672318035434
46.841225666026716,16.853866953701147,0.01016448597586191,0.011431631855501613,0.11116485734650058,0.060274488251002414,0.011158420906495976,0.011634613261039583,0.010856756741630419,0.012486780201195195,0.005051735371027562,0.01769154601358823,0.0008580778572919085,0.0002841169224591188
46.84119474469537,16.853862629147812,0.01016448597586191,0.011431631855501613,0.11116485734650058,0.060274488251002414,0.011158420906495976,0.011634613261039583,0.010856756741630419,0.012486780201195195,0.005051735371027562,0.01769154601358823,0.0008580778572919085,0.0002841169224591188
46.84115408312153,16.853858222434305,0.01016448597586191,0.011431631855501613,0.11116485734650058,0.060274488251002414,0.011158420906495976,0.011634613261039583,0.010856756741630419,0.012486780201195195,0.005051735371027562,0.01769154601358823,0.0008580778572919085,0.0002841169224591188
46.84112682628687,16.85385552448464,0.01016448597586191,0.011431631855501613,0.11116485734650058,0.060274488251002414,0.011158420906495976,0.011634613261039583,0.010856756741630419,0.012486780201195195,0.005051735371027562,0.01769154601358823,0.0008580778572919085,0.0002841169224591188
46.84110791265404,16.85385376065156,0.01016448597586191,0.011431631855501613,0.11116485734650058,0.060274488251002414,0.011158420906495976,0.011634613261039583,0.010856756741630419,0.012486780201195195,0.005051735371027562,0.01769154601358823,0.0008580778572919085,0.0002841169224591188
46.84107136572595,16.853850440793142,0.01016448597586191,0.011431631855501613,0.11116485734650058,0.060274488251002414,0.011158420906495976,0.011634613261039583,0.010856756741630419,0.012486780201195195,0.005051735371027562,0.01769154601358823,0.0008580778572919085,0.0002841169224591188
46.84104585818551,16.853848142666575,0.01016448597586191,0.011431631855501613,0.11116485734650058,0.060274488251002414,0.011158420906495976,0.011634613261039583,0.010856756741630419,0.012486780201195195,0.005051735371027562,0.01769154601358823,0.0008580778572919085,0.0002841169224591188
46.841017158997545,16.853845577905123,0.01016448597586191,0.011431631855501613,0.11116485734650058,0.060274488251002414,0.011158420906495976,0.011634613261039583,0.010856756741630419,0.012486780201195195,0.005051735371027562,0.01769154601358823,0.0008580778572919085,0.0002841169224591188
46.84098341959609,16.853843452232258,0.01016448597586191,0.011431631855501613,0.11116485734650058,0.060274488251002414,0.011158420906495976,0.011634613261039583,0.010856756741630419,0.012486780201195195,0.005051735371027562,0.01769154601358823,0.0008580778572919085,0.0002841169224591188
46.84096266710204,16.853843692160932,0.01016448597586191,0.011431631855501613,0.11116485734650058,0.060274488251002414,0.011158420906495976,0.011634613261039583,0.010856756741630419,0.012486780201195195,0.005051735371027562,0.01769154601358823,0.0008580778572919085,0.0002841169224591188
46.84091856237205,16.853847935725483,0.07087918753272543,0.024122368894117008,0.04572004160005279,0.038563578026706145,0.08346161002532955,0.020503279724136264,0.02131176802505955,0.015303665783078837,0.10228953836230392,0.023554725533768604,0.0005765555755534205,0.0005113382538111527
46.84091223012494,16.8538493594831,0.07087918753272543,0.024122368894117008,0.04572004160005279,0.038563578026706145,0.08346161002532955,0.020503279724136264,0.02131176802505955,0.015303665783078837,0.10228953836230392,0.023554725533768604,0.0005765555755534205,0.0005113382538111527
46.840868749505916,16.853850959386147,0.07087918753272543,0.024122368894117008,0.04572004160005279,0.038563578026706145,0.08346161002532955,0.020503279724136264,0.02131176802505955,0.015303665783078837,0.10228953836230392,0.023554725533768604,0.0005765555755534205,0.0005113382538111527
46.84084260169872,16.853848692249738,0.07087918753272543,0.024122368894117008,0.04572004160005279,0.038563578026706145,0.08346161002532955,0.020503279724136264,0.02131176802505955,0.015303665783078837,0.10228953836230392,0.023554725533768604,0.0005765555755534205,0.0005113382538111527
46.840808404913375,16.85384287893854,0.07087918753272543,0.024122368894117008,0.04572004160005279,0.038563578026706145,0.08346161002532955,0.020503279724136264,0.02131176802505955,0.015303665783078837,0.10228953836230392,0.023554725533768604,0.0005765555755534205,0.0005113382538111527
46.84077741367757,16.853837616052946,0.07087918753272543,0.024122368894117008,0.04572004160005279,0.038563578026706145,0.08346161002532955,0.020503279724136264,0.02131176802505955,0.015303665783078837,0.10228953836230392,0.023554725533768604,0.0005765555755534205,0.0005113382538111527
46.840752881125795,16.85383365582804,0.07087918753272543,0.024122368894117008,0.04572004160005279,0.038563578026706145,0.08346161002532955,0.020503279724136264,0.02131176802505955,0.015303665783078837,0.10228953836230392,0.023554725533768604,0.0005765555755534205,0.0005113382538111527
46.84071467108638,16.853827753893853,0.07087918753272543,0.024122368894117008,0.04572004160005279,0.038563578026706145,0.08346161002532955,0.020503279724136264,0.02131176802505955,0.015303665783078837,0.10228953836230392,0.023554725533768604,0.0005765555755534205,0.0005113382538111527
46.84069664842702,16.853824892695595,0.07087918753272543,0.024122368894117008,0.04572004160005279,0.038563578026706145,0.08346161002532955,0.020503279724136264,0.02131176802505955,0.015303665783078837,0.10228953836230392,0.023554725533768604,0.0005765555755534205,0.0005113382538111527
46.840669261742896,16.853820452371544,0.07087918753272543,0.024122368894117008,0.04572004160005279,0.038563578026706145,0.08346161002532955,0.020503279724136264,0.02131176802505955,0.015303665783078837,0.10228953836230392,0.023554725533768604,0.0005765555755534205,0.0005113382538111527
46.84064204563335,16.853815898935288,0.016140522951755346,0.031492510165343275,0.010398798005540838,0.017644462324611854,0.02642915147912869,0.05298047635466671,0.09819056355947467,0.09269658429401521,0.026606244852934686,0.028715440260259194,0.00017472524169339336,0.0002544801807755668
46.840608833153176,16.853810264085624,0.016140522951755346,0.031492510165343275,0.010398798005540838,0.017644462324611854,0.02642915147912869,0.05298047635466671,0.09819056355947467,0.09269658429401521,0.026606244852934686,0.028715440260259194,0.00017472524169339336,0.0002544801807755668
46.84058090044937,16.85380579582594,0.016140522951755346,0.031492510165343275,0.010398798005540838,0.017644462324611854,0.02642915147912869,0.05298047635466671,0.09819056355947467,0.09269658429401521,0.026606244852934686,0.028715440260259194,0.00017472524169339336,0.0002544801807755668
46.840551933598405,16.85380146135598,0.016140522951755346,0.031492510165343275,0.010398798005540838,0.017644462324611854,0.02642915147912869,0.05298047635466671,0.09819056355947467,0.09269658429401521,0.026606244852934686,0.028715440260259194,0.00017472524169339336,0.0002544801807755668
46.84052168789594,16.853797255929827,0.016140522951755346,0.031492510165343275,0.010398798005540838,0.017644462324611854,0.02642915147912869,0.05298047635466671,0.09819056355947467,0.09269658429401521,0.026606244852934686,0.028715440260259194,0.00017472524169339336,0.0002544801807755668
46.84049763923438,16.853794140927675,0.01232774655567329,0.011972159288488457,0.029038390242947344,0.017306717725518683,0.007966650094245447,0.012186628907544465,0.0058436729904995715,0.008861420089533254,0.013483147723094127,0.0147628767038817,0.0007452511163646337,0.0003033729941468757
46.84047065261633,16.853790871046574,0.01232774655567329,0.011972159288488457,0.029038390242947344,0.017306717725518683,0.007966650094245447,0.012186628907544465,0.0058436729904995715,0.008861420089533254,0.013483147723094127,0.0147628767038817,0.0007452511163646337,0.0003033729941468757
46.84044535920153,16.853788015497493,0.01232774655567329,0.011972159288488457,0.029038390242947344,0.017306717725518683,0.007966650094245447,0.012186628907544465,0.0058436729904995715,0.008861420089533254,0.013483147723094127,0.0147628767038817,0.0007452511163646337,0.0003033729941468757
46.84040160777245,16.853783503971584,0.01232774655567329,0.011972159288488457,0.029038390242947344,0.017306717725518683,0.007966650094245447,0.012186628907544465,0.0058436729904995715,0.008861420089533254,0.013483147723094127,0.0147628767038817,0.0007452511163646337,0.0003033729941468757
46.840387974190186,16.85378218052366,0.01232774655567329,0.011972159288488457,0.029038390242947344,0.017306717725518683,0.007966650094245447,0.012186628907544465,0.0058436729904995715,0.008861420089533254,0.013483147723094127,0.0147628767038817,0.0007452511163646337,0.0003033729941468757
46.84036383844542,16.853779802653722,0.01232774655567329,0.011972159288488457,0.029038390242947344,0.017306717725518683,0.007966650094245447,0.012186628907544465,0.0058436729904995715,0.008861420089533254,0.013483147723094127,0.0147628767038817,0.0007452511163646337,0.0003033729941468757
46.84033564204056,16.853777031308674,0.01232774655567329,0.011972159288488457,0.029038390242947344,0.017306717725518683,0.007966650094245447,0.012186628907544465,0.0058436729904995715,0.008861420089533254,0.013483147723094127,0.0147628767038817,0.0007452511163646337,0.0003033729941468757
46.8403086611702,16.853774386213423,0.01232774655567329,0.011972159288488457,0.029038390242947344,0.017306717725518683,0.007966650094245447,0.012186628907544465,0.0058436729904995715,0.008861420089533254,0.013483147723094127,0.0147628767038817,0.0007452511163646337,0.0003033729941468757
46.840280988898485,16.853771721158065,0.01232774655567329,0.011972159288488457,0.029038390242947344,0.017306717725518683,0.007966650094245447,0.012186628907544465,0.0058436729904995715,0.008861420089533254,0.013483147723094127,0.0147628767038817,0.0007452511163646337,0.0003033729941468757
46.840254412129276,16.853769282050852,0.01232774655567329,0.011972159288488457,0.029038390242947344,0.017306717725518683,0.007966650094245447,0.012186628907544465,0.0058436729904995715,0.008861420089533254,0.013483147723094127,0.0147628767038817,0.0007452511163646337,0.0003033729941468757
46.840231277096926,16.85376725736491,0.01232774655567329,0.011972159288488457,0.029038390242947344,0.017306717725518683,0.007966650094245447,0.012186628907544465,0.0058436729904995715,0.008861420089533254,0.013483147723094127,0.0147628767038817,0.0007452511163646337,0.0003033729941468757
46.84020118113227,16.853764760444903,0.01232774655567329,0.011972159288488457,0.029038390242947344,0.017306717725518683,0.007966650094245447,0.012186628907544465,0.0058436729904995715,0.008861420089533254,0.013483147723094127,0.0147628767038817,0.0007452511163646337,0.0003033729941468757
46.840174666608924,16.853762519345334,0.01232774655567329,0.011972159288488457,0.029038390242947344,0.017306717725518683,0.007966650094245447,0.012186628907544465,0.0058436729904995715,0.008861420089533254,0.013483147723094127,0.0147628767038817,0.0007452511163646337,0.0003033729941468757
46.84014864433426,16.853759901782393,0.01232774655567329,0.011972159288488457,0.029038390242947344,0.017306717725518683,0.007966650094245447,0.012186628907544465,0.0058436729904995715,0.008861420089533254,0.013483147723094127,0.0147628767038817,0.0007452511163646337,0.0003033729941468757
46.84011809436974,16.853756208168804,0.01232774655567329,0.011972159288488457,0.029038390242947344,0.017306717725518683,0.007966650094245447,0.012186628907544465,0.0058436729904995715,0.008861420089533254,0.013483147723094127,0.0147628767038817,0.0007452511163646337,0.0003033729941468757
46.84009283399563,16.853752644707495,0.01232774655567329,0.011972159288488457,0.029038390242947344,0.017306717725518683,0.007966650094245447,0.012186628907544465,0.0058436729904995715,0.008861420089533254,0.013483147723094127,0.0147628767038817,0.0007452511163646337,0.0003033729941468757
46.84007249142759,16.85374976230612,0.01232774655567329,0.011972159288488457,0.029038390242947344,0.017306717725518683,0.007966650094245447,0.012186628907544465,0.0058436729904995715,0.008861420089533254,0.013483147723094127,0.0147628767038817,0.0007452511163646337,0.0003033729941468757
46.840045905030415,16.853746739390733,0.01232774655567329,0.011972159288488457,0.029038390242947344,0.017306717725518683,0.007966650094245447,0.012186628907544465,0.0058436729904995715,0.008861420089533254,0.013483147723094127,0.0147628767038817,0.0007452511163646337,0.0003033729941468757
46.84001077119612,16.853744419079757,0.01232774655567329,0.011972159288488457,0.029038390242947344,0.017306717725518683,0.007966650094245447,0.012186628907544465,0.0058436729904995715,0.008861420089533254,0.013483147723094127,0.0147628767038817,0.0007452511163646337,0.0003033729941468757
46.83996876856377,16.853743498945583,0.01232774655567329,0.011972159288488457,0.029038390242947344,0.017306717725518683,0.007966650094245447,0.012186628907544465,0.0058436729904995715,0.008861420089533254,0.013483147723094127,0.0147628767038817,0.0007452511163646337,0.0003033729941468757
46.83992560320112,16.85374288304397,0.048325483885417214,0.03632755797514363,0.16890225602352663,0.2573609577757085,0.025562479546533515,0.026215980354748196,0.03744836163192105,0.018603056585555403,0.022454047595741468,0.037362736127991944,0.01610939462331653,0.0009934768737804832
46.83986229057833,16.853733523316183,0.048325483885417214,0.03632755797514363,0.16890225602352663,0.2573609577757085,0.025562479546533515,0.026215980354748196,0.03744836163192105,0.018603056585555403,0.022454047595741468,0.037362736127991944,0.01610939462331653,0.0009934768737804832
46.839829734125935,16.853695843915943,0.048325483885417214,0.03632755797514363,0.16890225602352663,0.2573609577757085,0.025562479546533515,0.026215980354748196,0.03744836163192105,0.018603056585555403,0.022454047595741468,0.037362736127991944,0.01610939462331653,0.0009934768737804832
46.83983787338456,16.853701779380902,0.048325483885417214,0.03632755797514363,0.16890225602352663,0.2573609577757085,0.025562479546533515,0.026215980354748196,0.03744836163192105,0.018603056585555403,0.022454047595741468,0.037362736127991944,0.01610939462331653,0.0009934768737804832
46.83981683443268,16.853702107993374,0.048325483885417214,0.03632755797514363,0.16890225602352663,0.2573609577757085,0.025562479546533515,0.026215980354748196,0.03744836163192105,0.018603056585555403,0.022454047595741468,0.037362736127991944,0.01610939462331653,0.0009934768737804832
46.83981963891508,16.85334184582711,0.048325483885417214,0.03632755797514363,0.16890225602352663,0.2573609577757085,0.025562479546533515,0.026215980354748196,0.03744836163192105,0.018603056585555403,0.022454047595741468,0.037362736127991944,0.01610939462331653,0.0009934768737804832
46.83986253745439,16.85284120154586,0.048325483885417214,0.03632755797514363,0.16890225602352663,0.2573609577757085,0.025562479546533515,0.026215980354748196,0.03744836163192105,0.018603056585555403,0.022454047595741468,0.037362736127991944,0.01610939462331653,0.0009934768737804832
46.839875130941685,16.852508538669998,0.048325483885417214,0.03632755797514363,0.16890225602352663,0.2573609577757085,0.025562479546533515,0.026215980354748196,0.03744836163192105,0.018603056585555403,0.022454047595741468,0.037362736127991944,0.01610939462331653,0.0009934768737804832
46.83989587454108,16.851929138513928,0.048325483885417214,0.03632755797514363,0.16890225602352663,0.2573609577757085,0.025562479546533515,0.026215980354748196,0.03744836163192105,0.018603056585555403,0.022454047595741468,0.037362736127991944,0.01610939462331653,0.0009934768737804832
46.83991493800463,16.851534595856915,0.048325483885417214,0.03632755797514363,0.16890225602352663,0.2573609577757085,0.025562479546533515,0.026215980354748196,0.03744836163192105,0.018603056585555403,0.022454047595741468,0.037362736127991944,0.01610939462331653,0.0009934768737804832
46.839933361269885,16.851166909532274,0.001302158611080775,0.03632755797514363,0.14784964352247362,0.08089066989592378,0.04412296862671393,0.01935828540832288,0.10963288401347787,0.021933502392256707,0.05838635121083278,0.02910144230434927,0.01271454193974932,0.0007628503226016789
46.839962713739915,16.85095338884995,0.001302158611080775,0.03632755797514363,0.14784964352247362,0.08089066989592378,0.04412296862671393,0.01935828540832288,0.10963288401347787,0.021933502392256707,0.05838635121083278,0.02910144230434927,0.01271454193974932,0.0007628503226016789
46.83999307246632,16.850851534417373,0.001302158611080775,0.03632755797514363,0.14784964352247362,0.08089066989592378,0.04412296862671393,0.01935828540832288,0.10963288401347787,0.021933502392256707,0.05838635121083278,0.02910144230434927,0.01271454193974932,0.0007628503226016789
46.84003469666957,16.850836678461494,0.001302158611080775,0.03632755797514363,0.14784964352247362,0.08089066989592378,0.04412296862671393,0.01935828540832288,0.10963288401347787,0.021933502392256707,0.05838635121083278,0.02910144230434927,0.01271454193974932,0.0007628503226016789
46.84006047510898,16.850832729725546,0.001302158611080775,0.03632755797514363,0.14784964352247362,0.08089066989592378,0.04412296862671393,0.01935828540832288,0.10963288401347787,0.021933502392256707,0.05838635121083278,0.02910144230434927,0.01271454193974932,0.0007628503226016789
46.8401296478123,16.85083543582766,0.03179213794642247,0.023145720658296082,0.04918043816629234,0.019919499943017414,0.009322898663481238,0.024316401144236166,0.0053646985084043215,0.017064958833662942,0.010293343135241748,0.024286184474875405,0.011706882938285233,0.0005958005975916755
46.840162105800715,16.850841236390785,0.03179213794642247,0.023145720658296082,0.04918043816629234,0.019919499943017414,0.009322898663481238,0.024316401144236166,0.0053646985084043215,0.017064958833662942,0.010293343135241748,0.024286184474875405,0.011706882938285233,0.0005958005975916755
46.84020071804315,16.85085002278049,0.03179213794642247,0.023145720658296082,0.04918043816629234,0.019919499943017414,0.009322898663481238,0.024316401144236166,0.0053646985084043215,0.017064958833662942,0.010293343135241748,0.024286184474875405,0.011706882938285233,0.0005958005975916755
46.8402443975895,16.850860249676593,0.03179213794642247,0.023145720658296082,0.04918043816629234,0.019919499943017414,0.009322898663481238,0.024316401144236166,0.0053646985084043215,0.017064958833662942,0.010293343135241748,0.024286184474875405,0.011706882938285233,0.0005958005975916755
46.840271454292285,16.850866834177328,0.03179213794642247,0.023145720658296082,0.04918043816629234,0.019919499943017414,0.009322898663481238,0.024316401144236166,0.0053646985084043215,0.017064958833662942,0.010293343135241748,0.024286184474875405,0.011706882938285233,0.0005958005975916755
46.84030233623077,16.850876643594823,0.03179213794642247,0.023145720658296082,0.04918043816629234,0.019919499943017414,0.009322898663481238,0.024316401144236166,0.0053646985084043215,0.017064958833662942,0.010293343135241748,0.024286184474875405,0.011706882938285233,0.0005958005975916755
46.840337550590206,16.85089144418788,0.03179213794642247,0.023145720658296082,0.04918043816629234,0.019919499943017414,0.009322898663481238,0.024316401144236166,0.0053646985084043215,0.017064958833662942,0.010293343135241748,0.024286184474875405,0.011706882938285233,0.0005958005975916755
46.84037025778784,16.85090652499754,0.03179213794642247,0.023145720658296082,0.04918043816629234,0.019919499943017414,0.009322898663481238,0.024316401144236166,0.0053646985084043215,0.017064958833662942,0.010293343135241748,0.024286184474875405,0.011706882938285233,0.0005958005975916755
46.84039431779844,16.850915102559423,0.03179213794642247,0.023145720658296082,0.04918043816629234,0.019919499943017414,0.009322898663481238,0.024316401144236166,0.0053646985084043215,0.017064958833662942,0.010293343135241748,0.024286184474875405,0.011706882938285233,0.0005958005975916755
46.84043148218042,16.850923001372408,0.03179213794642247,0.023145720658296082,0.04918043816629234,0.019919499943017414,0.009322898663481238,0.024316401144236166,0.0053646985084043215,0.017064958833662942,0.010293343135241748,0.024286184474875405,0.011706882938285233,0.0005958005975916755
46.84047613214574,16.850929669835004,0.06991324449081258,0.03632755797514363,0.46350623076934816,0.2702075770281919,0.08037448361736363,0.051894434025903165,0.06908775144863513,0.11598243362517816,0.17461466449101057,0.19270123746499968,0.0018780686225120331,0.0007628503226016789
46.84052648865166,16.850935165242273,0.06991324449081258,0.03632755797514363,0.46350623076934816,0.2702075770281919,0.08037448361736363,0.051894434025903165,0.06908775144863513,0.11598243362517816,0.17461466449101057,0.19270123746499968,0.0018780686225120331,0.0007628503226016789
46.840601682671995,16.850923335276914,0.06991324449081258,0.03632755797514363,0.46350623076934816,0.2702075770281919,0.08037448361736363,0.051894434025903165,0.06908775144863513,0.11598243362517816,0.17461466449101057,0.19270123746499968,0.0018780686225120331,0.0007628503226016789
46.84062881983847,16.850712317267938,0.06991324449081258,0.03632755797514363,0.46350623076934816,0.2702075770281919,0.08037448361736363,0.051894434025903165,0.06908775144863513,0.11598243362517816,0.17461466449101057,0.19270123746499968,0.0018780686225120331,0.0007628503226016789
46.840590932964304,16.850334887476286,0.06991324449081258,0.03632755797514363,0.46350623076934816,0.2702075770281919,0.08037448361736363,0.051894434025903165,0.06908775144863513,0.11598243362517816,0.17461466449101057,0.19270123746499968,0.0018780686225120331,0.0007628503226016789
46.84056589346217,16.850021717784692,0.06360855409460282,0.13636370000479642,0.2659601986022699,0.11939092824701734,0.05071714453080164,0.08344474763404437,0.03633874365698697,0.09101686330774336,0.03091822121272017,0.08947238565541085,0.018394451956173046,0.022247528909654382
46.84054970433114,16.84967017717035,0.06360855409460282,0.13636370000479642,0.2659601986022699,0.11939092824701734,0.05071714453080164,0.08344474763404437,0.03633874365698697,0.09101686330774336,0.03091822121272017,0.08947238565541085,0.018394451956173046,0.022247528909654382
46.840532160230225,16.84922653327223,0.06360855409460282,0.13636370000479642,0.2659601986022699,0.11939092824701734,0.05071714453080164,0.08344474763404437,0.03633874365698697,0.09101686330774336,0.03091822121272017,0.08947238565541085,0.018394451956173046,0.022247528909654382
46.84051771270514,16.848830626814244,0.06360855409460282,0.13636370000479642,0.2659601986022699,0.11939092824701734,0.05071714453080164,0.08344474763404437,0.03633874365698697,0.09101686330774336,0.03091822121272017,0.08947238565541085,0.018394451956173046,0.022247528909654382
46.84049690265234,16.848385258030312,0.06360855409460282,0.13636370000479642,0.2659601986022699,0.11939092824701734,0.05071714453080164,0.08344474763404437,0.03633874365698697,0.09101686330774336,0.03091822121272017,0.08947238565541085,0.018394451956173046,0.022247528909654382
46.84049238403956,16.84821270708677,0.00527672251168502,0.005027996635673923,0.47160723836115903,0.17148999526223502,0.006723230967912597,0.014728187968214778,0.012610909102672931,0.011519639006279952,0.027495184125465987,0.025808017550079547,0.00020221694529779261,0.0002501749973781219
46.84048509404461,16.848219354997983,0.00527672251168502,0.005027996635673923,0.47160723836115903,0.17148999526223502,0.006723230967912597,0.014728187968214778,0.012610909102672931,0.011519639006279952,0.027495184125465987,0.025808017550079547,0.00020221694529779261,0.0002501749973781219
46.84047382241736,16.848222099693075,0.00527672251168502,0.005027996635673923,0.47160723836115903,0.17148999526223502,0.006723230967912597,0.014728187968214778,0.012610909102672931,0.011519639006279952,0.027495184125465987,0.025808017550079547,0.00020221694529779261,0.0002501749973781219
46.84047231685045,16.848222692623224,0.00527672251168502,0.005027996635673923,0.47160723836115903,0.17148999526223502,0.006723230967912597,0.014728187968214778,0.012610909102672931,0.011519639006279952,0.027495184125465987,0.025808017550079547,0.00020221694529779261,0.0002501749973781219
46.84047298582673,16.848202958279764,0.00527672251168502,0.005027996635673923,0.47160723836115903,0.17148999526223502,0.006723230967912597,0.014728187968214778,0.012610909102672931,0.011519639006279952,0.027495184125465987,0.025808017550079547,0.00020221694529779261,0.0002501749973781219
46.84046663036404,16.848095504472173,0.014688640412851891,0.05136936948550913,0.21448008590593623,0.24443687431307998,0.044398894177364145,0.09138730604418654,0.08071675111925887,0.15120076430888635,0.03789549265592334,0.0828619184493743,0.0004983526933436048,0.0012775562525633628
46.84045272901218,16.84783741258376,0.014688640412851891,0.05136936948550913,0.21448008590593623,0.24443687431307998,0.044398894177364145,0.09138730604418654,0.08071675111925887,0.15120076430888635,0.03789549265592334,0.0828619184493743,0.0004983526933436048,0.0012775562525633628
46.84043867913807,16.847583294064705,0.014688640412851891,0.05136936948550913,0.21448008590593623,0.24443687431307998,0.044398894177364145,0.09138730604418654,0.08071675111925887,0.15120076430888635,0.03789549265592334,0.0828619184493743,0.0004983526933436048,0.0012775562525633628
46.84040880134284,16.847248227051146,0.014688640412851891,0.05136936948550913,0.21448008590593623,0.24443687431307998,0.044398894177364145,0.09138730604418654,0.08071675111925887,0.15120076430888635,0.03789549265592334,0.0828619184493743,0.0004983526933436048,0.0012775562525633628
46.84039175169063,16.846951636959915,0.014688640412851891,0.05136936948550913,0.21448008590593623,0.24443687431307998,0.044398894177364145,0.09138730604418654,0.08071675111925887,0.15120076430888635,0.03789549265592334,0.0828619184493743,0.0004983526933436048,0.0012775562525633628
46.84037790471199,16.846572516912467,0.07073077889088425,0.0548536441064758,0.20460883095216267,0.635867523221633,0.0435595947500152,0.06634556713833648,0.06512437523896185,0.02653813269938509,0.05225929154609183,0.08374509282394739,0.0005827362911778885,0.00047944801478873805
46.840371992379744,16.846292911124802,0.07073077889088425,0.0548536441064758,0.20460883095216267,0.635867523221633,0.0435595947500152,0.06634556713833648,0.06512437523896185,0.02653813269938509,0.05225929154609183,0.08374509282394739,0.0005827362911778885,0.00047944801478873805
46.84036682236401,16.846062883276478,0.07073077889088425,0.0548536441064758,0.20460883095216267,0.635867523221633,0.0435595947500152,0.06634556713833648,0.06512437523896185,0.02653813269938509,0.05225929154609183,0.08374509282394739,0.0005827362911778885,0.00047944801478873805
46.840369659288264,16.84603172353529,0.07073077889088425,0.0548536441064758,0.20460883095216267,0.635867523221633,0.0435595947500152,0.06634556713833648,0.06512437523896185,0.02653813269938509,0.05225929154609183,0.08374509282394739,0.0005827362911778885,0.00047944801478873805
46.84036849773701,16.84597971384079,0.07073077889088425,0.0548536441064758,0.20460883095216267,0.635867523221633,0.0435595947500152,0.06634556713833648,0.06512437523896185,0.02653813269938509,0.05225929154609183,0.08374509282394739,0.0005827362911778885,0.00047944801478873805
46.84036182716933,16.845951951688303,0.055494779871164905,0.03632755797514363,0.3408846594673326,0.2032773053434262,0.20986889456089014,0.20073787905578735,0.3257387716890118,0.12170380239569363,0.155023945348383,0.1380754172626995,0.01634115134702172,0.0007628503226016789
46.840358848403646,16.845948465866066,0.055494779871164905,0.03632755797514363,0.3408846594673326,0.2032773053434262,0.20986889456089014,0.20073787905578735,0.3257387716890118,0.12170380239569363,0.155023945348383,0.1380754172626995,0.01634115134702172,0.0007628503226016789
46.84033562265988,16.845798138855255,0.055494779871164905,0.03632755797514363,0.3408846594673326,0.2032773053434262,0.20986889456089014,0.20073787905578735,0.3257387716890118,0.12170380239569363,0.155023945348383,0.1380754172626995,0.01634115134702172,0.0007628503226016789
46.84029037659714,16.845788179130324,0.055494779871164905,0.03632755797514363,0.3408846594673326,0.2032773053434262,0.20986889456089014,0.20073787905578735,0.3257387716890118,0.12170380239569363,0.155023945348383,0.1380754172626995,0.01634115134702172,0.0007628503226016789
46.84026209239878,16.845791319686494,0.055494779871164905,0.03632755797514363,0.3408846594673326,0.2032773053434262,0.20986889456089014,0.20073787905578735,0.3257387716890118,0.12170380239569363,0.155023945348383,0.1380754172626995,0.01634115134702172,0.0007628503226016789
46.84023709420237,16.845793830027528,0.03576682338036997,0.05573526113582479,0.18945570608890944,0.15091943709106506,0.03756015782023166,0.07985224468904033,0.026995539014048966,0.07055634382694591,0.03718630866966808,0.1418650796950132,0.01318079842679095,0.02618907191501419
46.84021523385275,16.845794941481607,0.03576682338036997,0.05573526113582479,0.18945570608890944,0.15091943709106506,0.03756015782023166,0.07985224468904033,0.026995539014048966,0.07055634382694591,0.03718630866966808,0.1418650796950132,0.01318079842679095,0.02618907191501419
46.84014343252719,16.845779679066318,0.03576682338036997,0.05573526113582479,0.18945570608890944,0.15091943709106506,0.03756015782023166,0.07985224468904033,0.026995539014048966,0.07055634382694591,0.03718630866966808,0.1418650796950132,0.01318079842679095,0.02618907191501419
46.840056019412565,16.845776917289612,0.03576682338036997,0.05573526113582479,0.18945570608890944,0.15091943709106506,0.03756015782023166,0.07985224468904033,0.026995539014048966,0.07055634382694591,0.03718630866966808,0.1418650796950132,0.01318079842679095,0.02618907191501419
46.840002948097904,16.845776164017447,0.03576682338036997,0.05573526113582479,0.18945570608890944,0.15091943709106506,0.03756015782023166,0.07985224468904033,0.026995539014048966,0.07055634382694591,0.03718630866966808,0.1418650796950132,0.01318079842679095,0.02618907191501419
46.83997899866646,16.845775824089333,0.07513281025311283,0.07665444972554666,0.11932954195932206,0.09856170095121815,0.025135250144885136,0.06330881892358126,0.02114171010843021,0.05879983888919578,0.032300080807682534,0.08160820668939796,0.011469348053791864,0.00405175947032371
46.839926084691584,16.845775073050863,0.07513281025311283,0.07665444972554666,0.11932954195932206,0.09856170095121815,0.025135250144885136,0.06330881892358126,0.02114171010843021,0.05879983888919578,0.032300080807682534,0.08160820668939796,0.011469348053791864,0.00405175947032371
46.839887232567726,16.845776879017052,0.07513281025311283,0.07665444972554666,0.11932954195932206,0.09856170095121815,0.025135250144885136,0.06330881892358126,0.02114171010843021,0.05879983888919578,0.032300080807682534,0.08160820668939796,0.011469348053791864,0.00405175947032371
46.83985694527706,16.845781151481482,0.07513281025311283,0.07665444972554666,0.11932954195932206,0.09856170095121815,0.025135250144885136,0.06330881892358126,0.02114171010843021,0.05879983888919578,0.032300080807682534,0.08160820668939796,0.011469348053791864,0.00405175947032371
46.83982632156268,16.84578745971982,0.07513281025311283,0.07665444972554666,0.11932954195932206,0.09856170095121815,0.025135250144885136,0.06330881892358126,0.02114171010843021,0.05879983888919578,0.032300080807682534,0.08160820668939796,0.011469348053791864,0.00405175947032371
46.839799982344225,16.845791707914664,0.019988803323962866,0.016661068680381887,0.02295310796478515,0.03946279883308648,0.024734788191286317,0.01930778827115499,0.01609642589787711,0.02625673328753267,0.02136632759867772,0.020761034256376203,0.0002924671895770678,0.0002678664974982353
46.839770548876814,16.845794401764156,0.019988803323962866,0.016661068680381887,0.02295310796478515,0.03946279883308648,0.024734788191286317,0.01930778827115499,0.01609642589787711,0.02625673328753267,0.02136632759867772,0.020761034256376203,0.0002924671895770678,0.0002678664974982353
46.83975121976662,16.845795099631495,0.019988803323962866,0.016661068680381887,0.02295310796478515,0.03946279883308648,0.024734788191286317,0.01930778827115499,0.01609642589787711,0.02625673328753267,0.02136632759867772,0.020761034256376203,0.0002924671895770678,0.0002678664974982353
46.83970964324237,16.845792553344534,0.019988803323962866,0.016661068680381887,0.02295310796478515,0.03946279883308648,0.024734788191286317,0.01930778827115499,0.01609642589787711,0.02625673328753267,0.02136632759867772,0.020761034256376203,0.0002924671895770678,0.0002678664974982353
46.839681174217596,16.84578821221323,0.019988803323962866,0.016661068680381887,0.02295310796478515,0.03946279883308648,0.024734788191286317,0.01930778827115499,0.01609642589787711,0.02625673328753267,0.02136632759867772,0.020761034256376203,0.0002924671895770678,0.0002678664974982353
46.83963344453702,16.845777570273707,0.022137367202911394,0.05796768769332494,0.0441670036599993,0.08336434654041977,0.03382082723063601,0.06530069478692951,0.03969975810338213,0.091765816811418,0.028244015032114593,0.06665828619150822,0.0023048516369128013,0.001315871803694094
46.83961108855882,16.84577427737896,0.022137367202911394,0.05796768769332494,0.0441670036599993,0.08336434654041977,0.03382082723063601,0.06530069478692951,0.03969975810338213,0.091765816811418,0.028244015032114593,0.06665828619150822,0.0023048516369128013,0.001315871803694094
46.83959610838878,16.845772508195434,0.022137367202911394,0.05796768769332494,0.0441670036599993,0.08336434654041977,0.03382082723063601,0.06530069478692951,0.03969975810338213,0.091765816811418,0.028244015032114593,0.06665828619150822,0.0023048516369128013,0.001315871803694094
46.839541825461616,16.845772069206014,0.022137367202911394,0.05796768769332494,0.0441670036599993,0.08336434654041977,0.03382082723063601,0.06530069478692951,0.03969975810338213,0.091765816811418,0.028244015032114593,0.06665828619150822,0.0023048516369128013,0.001315871803694094
46.839519767355426,16.845772261435556,0.022137367202911394,0.05796768769332494,0.0441670036599993,0.08336434654041977,0.03382082723063601,0.06530069478692951,0.03969975810338213,0.091765816811418,0.028244015032114593,0.06665828619150822,0.0023048516369128013,0.001315871803694094
46.83949174519369,16.845772505639975,0.0278357410569864,0.03314756639524023,0.01539905340874694,0.013675816883301668,0.02029407803640104,0.030996412621008083,0.012190503160520979,0.026631761488311846,0.021054491051023753,0.025427487390062207,0.0014153649168152768,0.00038878209313180723
46.83945734533175,16.845772805424012,0.0278357410569864,0.03314756639524023,0.01539905340874694,0.013675816883301668,0.02029407803640104,0.030996412621008083,0.012190503160520979,0.026631761488311846,0.021054491051023753,0.025427487390062207,0.0014153649168152768,0.00038878209313180723
46.83942611591011,16.84577307757859,0.0278357410569864,0.03314756639524023,0.01539905340874694,0.013675816883301668,0.02029407803640104,0.030996412621008083,0.012190503160520979,0.026631761488311846,0.021054491051023753,0.025427487390062207,0.0014153649168152768,0.00038878209313180723
46.839407817801344,16.84577323704083,0.0278357410569864,0.03314756639524023,0.01539905340874694,0.013675816883301668,0.02029407803640104,0.030996412621008083,0.012190503160520979,0.026631761488311846,0.021054491051023753,0.025427487390062207,0.0014153649168152768,0.00038878209313180723
46.83937086527736,16.845773559070324,0.0278357410569864,0.03314756639524023,0.01539905340874694,0.013675816883301668,0.02029407803640104,0.030996412621008083,0.012190503160520979,0.026631761488311846,0.021054491051023753,0.025427487390062207,0.0014153649168152768,0.00038878209313180723
46.839346672411125,16.845773769903456,0.0278357410569864,0.03314756639524023,0.01539905340874694,0.013675816883301668,0.02029407803640104,0.030996412621008083,0.012190503160520979,0.026631761488311846,0.021054491051023753,0.025427487390062207,0.0014153649168152768,0.00038878209313180723
46.839316782174464,16.845774030387396,0.0278357410569864,0.03314756639524023,0.01539905340874694,0.013675816883301668,0.02029407803640104,0.030996412621008083,0.012190503160520979,0.026631761488311846,0.021054491051023753,0.025427487390062207,0.0014153649168152768,0.00038878209313180723
46.83929017202871,16.8457742622864,0.0278357410569864,0.03314756639524023,0.01539905340874694,0.013675816883301668,0.02029407803640104,0.030996412621008083,0.012190503160520979,0.026631761488311846,0.021054491051023753,0.025427487390062207,0.0014153649168152768,0.00038878209313180723
46.839261745609804,16.845774435372615,0.0278357410569864,0.03314756639524023,0.01539905340874694,0.013675816883301668,0.02029407803640104,0.030996412621008083,0.012190503160520979,0.026631761488311846,0.021054491051023753,0.025427487390062207,0.0014153649168152768,0.00038878209313180723
46.83923660002255,16.845774003287627,0.0278357410569864,0.03314756639524023,0.01539905340874694,0.013675816883301668,0.02029407803640104,0.030996412621008083,0.012190503160520979,0.026631761488311846,0.021054491051023753,0.025427487390062207,0.0014153649168152768,0.00038878209313180723
46.83921033069728,16.84577287199876,0.0278357410569864,0.03314756639524023,0.01539905340874694,0.013675816883301668,0.02029407803640104,0.030996412621008083,0.012190503160520979,0.026631761488311846,0.021054491051023753,0.025427487390062207,0.0014153649168152768,0.00038878209313180723
46.83918463883698,16.84577114275589,0.0278357410569864,0.03314756639524023,0.01539905340874694,0.013675816883301668,0.02029407803640104,0.030996412621008083,0.012190503160520979,0.026631761488311846,0.021054491051023753,0.025427487390062207,0.0014153649168152768,0.00038878209313180723
46.83915821152787,16.845768823318846,0.0278357410569864,0.03314756639524023,0.01539905340874694,0.013675816883301668,0.02029407803640104,0.030996412621008083,0.012190503160520979,0.026631761488311846,0.021054491051023753,0.025427487390062207,0.0014153649168152768,0.00038878209313180723
46.83912848269066,16.84576634871632,0.0278357410569864,0.03314756639524023,0.01539905340874694,0.013675816883301668,0.02029407803640104,0.030996412621008083,0.012190503160520979,0.026631761488311846,0.021054491051023753,0.025427487390062207,0.0014153649168152768,0.00038878209313180723
46.83910300426217,16.845764522693404,0.0278357410569864,0.03314756639524023,0.01539905340874694,0.013675816883301668,0.02029407803640104,0.030996412621008083,0.012190503160520979,0.026631761488311846,0.021054491051023753,0.025427487390062207,0.0014153649168152768,0.00038878209313180723
46.83906603742869,16.845762468414502,0.04672520952095571,0.038233458780527155,0.03054058238355811,0.03499893238674027,0.06356996171927903,0.0528539197925274,0.02439279394355781,0.03049993393910636,0.062198484153202165,0.03975564635437952,0.0010339906453331426,0.0008593795794843466
46.839035392804064,16.84576120747189,0.04672520952095571,0.038233458780527155,0.03054058238355811,0.03499893238674027,0.06356996171927903,0.0528539197925274,0.02439279394355781,0.03049993393910636,0.062198484153202165,0.03975564635437952,0.0010339906453331426,0.0008593795794843466
46.83899326008677,16.845759885053962,0.04672520952095571,0.038233458780527155,0.03054058238355811,0.03499893238674027,0.06356996171927903,0.0528539197925274,0.02439279394355781,0.03049993393910636,0.062198484153202165,0.03975564635437952,0.0010339906453331426,0.0008593795794843466
46.83897238283944,16.845759447589927,0.04672520952095571,0.038233458780527155,0.03054058238355811,0.03499893238674027,0.06356996171927903,0.0528539197925274,0.02439279394355781,0.03049993393910636,0.062198484153202165,0.03975564635437952,0.0010339906453331426,0.0008593795794843466
46.83894058802994,16.845758936320077,0.04672520952095571,0.038233458780527155,0.03054058238355811,0.03499893238674027,0.06356996171927903,0.0528539197925274,0.02439279394355781,0.03049993393910636,0.062198484153202165,0.03975564635437952,0.0010339906453331426,0.0008593795794843466
46.83887945286032,16.84575860833643,0.04672520952095571,0.038233458780527155,0.03054058238355811,0.03499893238674027,0.06356996171927903,0.0528539197925274,0.02439279394355781,0.03049993393910636,0.062198484153202165,0.03975564635437952,0.0010339906453331426,0.0008593795794843466
46.83884655698536,16.845758603870035,0.04672520952095571,0.038233458780527155,0.03054058238355811,0.03499893238674027,0.06356996171927903,0.0528539197925274,0.02439279394355781,0.03049993393910636,0.062198484153202165,0.03975564635437952,0.0010339906453331426,0.0008593795794843466
46.83881331628039,16.845758668524653,0.04672520952095571,0.038233458780527155,0.03054058238355811,0.03499893238674027,0.06356996171927903,0.0528539197925274,0.02439279394355781,0.03049993393910636,0.062198484153202165,0.03975564635437952,0.0010339906453331426,0.0008593795794843466
46.83875889572126,16.845759764561254,0.04672520952095571,0.038233458780527155,0.03054058238355811,0.03499893238674027,0.06356996171927903,0.0528539197925274,0.02439279394355781,0.03049993393910636,0.062198484153202165,0.03975564635437952,0.0010339906453331426,0.0008593795794843466
46.8387266836374,16.845760960215507,0.04672520952095571,0.038233458780527155,0.03054058238355811,0.03499893238674027,0.06356996171927903,0.0528539197925274,0.02439279394355781,0.03049993393910636,0.062198484153202165,0.03975564635437952,0.0010339906453331426,0.0008593795794843466
46.83868016607917,16.845762261218102,0.04672520952095571,0.038233458780527155,0.03054058238355811,0.03499893238674027,0.06356996171927903,0.0528539197925274,0.02439279394355781,0.03049993393910636,0.062198484153202165,0.03975564635437952,0.0010339906453331426,0.0008593795794843466
46.83863201260787,16.84576298464572,0.04672520952095571,0.038233458780527155,0.03054058238355811,0.03499893238674027,0.06356996171927903,0.0528539197925274,0.02439279394355781,0.03049993393910636,0.062198484153202165,0.03975564635437952,0.0010339906453331426,0.0008593795794843466
46.83858397385449,16.845763023717893,0.04672520952095571,0.038233458780527155,0.03054058238355811,0.03499893238674027,0.06356996171927903,0.0528539197925274,0.02439279394355781,0.03049993393910636,0.062198484153202165,0.03975564635437952,0.0010339906453331426,0.0008593795794843466
46.83855461308687,16.84576217119362,0.04672520952095571,0.038233458780527155,0.03054058238355811,0.03499893238674027,0.06356996171927903,0.0528539197925274,0.02439279394355781,0.03049993393910636,0.062198484153202165,0.03975564635437952,0.0010339906453331426,0.0008593795794843466
46.83850136253128,16.845758990950625,0.04672520952095571,0.038233458780527155,0.03054058238355811,0.03499893238674027,0.06356996171927903,0.0528539197925274,0.02439279394355781,0.03049993393910636,0.062198484153202165,0.03975564635437952,0.0010339906453331426,0.0008593795794843466
46.83844433092363,16.845755029860115,0.028678077661868827,0.039902623650876365,0.06446206943857054,0.11666058086114611,0.02455039834060241,0.028200651808178025,0.009761121547776344,0.025525707618083725,0.02303122334187745,0.04620351647277059,0.0023205065384572835,0.0008924327985128001
46.83839498790735,16.8457533966903,0.028678077661868827,0.039902623650876365,0.06446206943857054,0.11666058086114611,0.02455039834060241,0.028200651808178025,0.009761121547776344,0.025525707618083725,0.02303122334187745,0.04620351647277059,0.0023205065384572835,0.0008924327985128001
46.83832194559806,16.84574880805641,0.028678077661868827,0.039902623650876365,0.06446206943857054,0.11666058086114611,0.02455039834060241,0.028200651808178025,0.009761121547776344,0.025525707618083725,0.02303122334187745,0.04620351647277059,0.0023205065384572835,0.0008924327985128001
46.83824576919677,16.845748409888532,0.028678077661868827,0.039902623650876365,0.06446206943857054,0.11666058086114611,0.02455039834060241,0.028200651808178025,0.009761121547776344,0.025525707618083725,0.02303122334187745,0.04620351647277059,0.0023205065384572835,0.0008924327985128001
46.83817411003652,16.84574917472444,0.028678077661868827,0.039902623650876365,0.06446206943857054,0.11666058086114611,0.02455039834060241,0.028200651808178025,0.009761121547776344,0.025525707618083725,0.02303122334187745,0.04620351647277059,0.0023205065384572835,0.0008924327985128001
46.83813544039398,16.84574931037264,0.028678077661868827,0.039902623650876365,0.06446206943857054,0.11666058086114611,0.02455039834060241,0.028200651808178025,0.009761121547776344,0.025525707618083725,0.02303122334187745,0.04620351647277059,0.0023205065384572835,0.0008924327985128001
46.83806836747737,16.845749256044158,0.028678077661868827,0.039902623650876365,0.06446206943857054,0.11666058086114611,0.02455039834060241,0.028200651808178025,0.009761121547776344,0.025525707618083725,0.02303122334187745,0.04620351647277059,0.0023205065384572835,0.0008924327985128001
46.83800485854139,16.845750340207083,0.028678077661868827,0.039902623650876365,0.06446206943857054,0.11666058086114611,0.02455039834060241,0.028200651808178025,0.009761121547776344,0.025525707618083725,0.02303122334187745,0.04620351647277059,0.0023205065384572835,0.0008924327985128001
46.8379583467596,16.845750745455362,0.028678077661868827,0.039902623650876365,0.06446206943857054,0.11666058086114611,0.02455039834060241,0.028200651808178025,0.009761121547776344,0.025525707618083725,0.02303122334187745,0.04620351647277059,0.0023205065384572835,0.0008924327985128001
46.83791518761066,16.84575160962519,0.028678077661868827,0.039902623650876365,0.06446206943857054,0.11666058086114611,0.02455039834060241,0.028200651808178025,0.009761121547776344,0.025525707618083725,0.02303122334187745,0.04620351647277059,0.0023205065384572835,0.0008924327985128001
46.83787435095544,16.845753437005634,0.06628385239732369,0.0816958698204297,0.031666649951290066,0.09247232566268926,0.08594887071418178,0.05251581121823509,0.05069416269074821,0.03646945900557177,0.27394259058000914,0.07972524310110989,0.019604981208307556,0.0054396504017865804
46.83785400626159,16.845754857106265,0.06628385239732369,0.0816958698204297,0.031666649951290066,0.09247232566268926,0.08594887071418178,0.05251581121823509,0.05069416269074821,0.03646945900557177,0.27394259058000914,0.07972524310110989,0.019604981208307556,0.0054396504017865804
46.837815256208216,16.84575839584173,0.06628385239732369,0.0816958698204297,0.031666649951290066,0.09247232566268926,0.08594887071418178,0.05251581121823509,0.05069416269074821,0.03646945900557177,0.27394259058000914,0.07972524310110989,0.019604981208307556,0.0054396504017865804
46.83778025421775,16.84576232526521,0.06628385239732369,0.0816958698204297,0.031666649951290066,0.09247232566268926,0.08594887071418178,0.05251581121823509,0.05069416269074821,0.03646945900557177,0.27394259058000914,0.07972524310110989,0.019604981208307556,0.0054396504017865804
46.83774410149782,16.845766863295545,0.06628385239732369,0.0816958698204297,0.031666649951290066,0.09247232566268926,0.08594887071418178,0.05251581121823509,0.05069416269074821,0.03646945900557177,0.27394259058000914,0.07972524310110989,0.019604981208307556,0.0054396504017865804
46.837712567791584,16.845770171475756,0.05078196262836514,0.05156945390110797,0.10573401459738146,0.08656470544655447,0.13912459555618722,0.14442321421547255,0.06447268209618645,0.05990635137987986,0.3855379623849348,0.10880864164886733,0.006197964813431828,0.0010842602838452245
46.83767815103166,16.84577287299899,0.05078196262836514,0.05156945390110797,0.10573401459738146,0.08656470544655447,0.13912459555618722,0.14442321421547255,0.06447268209618645,0.05990635137987986,0.3855379623849348,0.10880864164886733,0.006197964813431828,0.0010842602838452245
46.8376394423181,16.845774303551373,0.05078196262836514,0.05156945390110797,0.10573401459738146,0.08656470544655447,0.13912459555618722,0.14442321421547255,0.06447268209618645,0.05990635137987986,0.3855379623849348,0.10880864164886733,0.006197964813431828,0.0010842602838452245
46.83761525604912,16.845774147344407,0.05078196262836514,0.05156945390110797,0.10573401459738146,0.08656470544655447,0.13912459555618722,0.14442321421547255,0.06447268209618645,0.05990635137987986,0.3855379623849348,0.10880864164886733,0.006197964813431828,0.0010842602838452245
46.83757631858407,16.84577251748865,0.05078196262836514,0.05156945390110797,0.10573401459738146,0.08656470544655447,0.13912459555618722,0.14442321421547255,0.06447268209618645,0.05990635137987986,0.3855379623849348,0.10880864164886733,0.006197964813431828,0.0010842602838452245
46.83753574368713,16.845771539485337,0.04984832907259344,0.14627544140307322,0.08220602419995018,0.05484820003577687,0.037069416786490464,0.14182648602058157,0.038720658835072516,0.08198891696463158,0.04555314965317521,0.15643590665932766,0.0018927273238765444,0.0033380429995762116
46.837506680672846,16.845771568947356,0.04984832907259344,0.14627544140307322,0.08220602419995018,0.05484820003577687,0.037069416786490464,0.14182648602058157,0.038720658835072516,0.08198891696463158,0.04555314965317521,0.15643590665932766,0.0018927273238765444,0.0033380429995762116
46.83746975611805,16.84577269131421,0.04984832907259344,0.14627544140307322,0.08220602419995018,0.05484820003577687,0.037069416786490464,0.14182648602058157,0.038720658835072516,0.08198891696463158,0.04555314965317521,0.15643590665932766,0.0018927273238765444,0.0033380429995762116
46.83744623925765,16.84577414661699,0.04984832907259344,0.14627544140307322,0.08220602419995018,0.05484820003577687,0.037069416786490464,0.14182648602058157,0.038720658835072516,0.08198891696463158,0.04555314965317521,0.15643590665932766,0.0018927273238765444,0.0033380429995762116
46.83741162695294,16.84577738733167,0.04984832907259344,0.14627544140307322,0.08220602419995018,0.05484820003577687,0.037069416786490464,0.14182648602058157,0.038720658835072516,0.08198891696463158,0.04555314965317521,0.15643590665932766,0.0018927273238765444,0.0033380429995762116
46.837379266678646,16.845781250587194,0.0252397718009448,0.04080819325588654,0.08966081658183968,0.02223983106995664,0.0456320821302042,0.033693919498815145,0.008565100174121413,0.017888584300971178,0.023140450833620572,0.06180649168798205,0.005239974736316935,0.006239477354047769
46.8373440255958,16.845786134911016,0.0252397718009448,0.04080819325588654,0.08966081658183968,0.02223983106995664,0.0456320821302042,0.033693919498815145,0.008565100174121413,0.017888584300971178,0.023140450833620572,0.06180649168798205,0.005239974736316935,0.006239477354047769
46.8373208006147,16.84578976545416,0.0252397718009448,0.04080819325588654,0.08966081658183968,0.02223983106995664,0.0456320821302042,0.033693919498815145,0.008565100174121413,0.017888584300971178,0.023140450833620572,0.06180649168798205,0.005239974736316935,0.006239477354047769
46.83728537536342,16.845796270684946,0.0252397718009448,0.04080819325588654,0.08966081658183968,0.02223983106995664,0.0456320821302042,0.033693919498815145,0.008565100174121413,0.017888584300971178,0.023140450833620572,0.06180649168798205,0.005239974736316935,0.006239477354047769
46.83725096871057,16.84580395226701,0.0252397718009448,0.04080819325588654,0.08966081658183968,0.02223983106995664,0.0456320821302042,0.033693919498815145,0.008565100174121413,0.017888584300971178,0.023140450833620572,0.06180649168798205,0.005239974736316935,0.006239477354047769
46.837227415243625,16.845809990208345,0.0252397718009448,0.04080819325588654,0.08966081658183968,0.02223983106995664,0.0456320821302042,0.033693919498815145,0.008565100174121413,0.017888584300971178,0.023140450833620572,0.06180649168798205,0.005239974736316935,0.006239477354047769
46.83718603715993,16.845821870129125,0.0252397718009448,0.04080819325588654,0.08966081658183968,0.02223983106995664,0.0456320821302042,0.033693919498815145,0.008565100174121413,0.017888584300971178,0.023140450833620572,0.06180649168798205,0.005239974736316935,0.006239477354047769
46.837148581079255,16.845833842311816,0.0252397718009448,0.04080819325588654,0.08966081658183968,0.02223983106995664,0.0456320821302042,0.033693919498815145,0.008565100174121413,0.017888584300971178,0.023140450833620572,0.06180649168798205,0.005239974736316935,0.006239477354047769
46.83709352239813,16.845853047156453,0.0252397718009448,0.04080819325588654,0.08966081658183968,0.02223983106995664,0.0456320821302042,0.033693919498815145,0.008565100174121413,0.017888584300971178,0.023140450833620572,0.06180649168798205,0.005239974736316935,0.006239477354047769
46.837045352588234,16.845876198161818,0.0252397718009448,0.04080819325588654,0.08966081658183968,0.02223983106995664,0.0456320821302042,0.033693919498815145,0.008565100174121413,0.017888584300971178,0.023140450833620572,0.06180649168798205,0.005239974736316935,0.006239477354047769
46.836970169627655,16.845919641485764,0.018328082212135638,0.007329347807262857,0.43736476087854875,0.031059697027145665,0.005887644653249786,0.025123468740709885,0.007986006659069353,0.002123581674448441,0.0025207525829327566,0.005297728096102691,0.004558251124570981,0.00020525027808532083
46.83698644696797,16.845924403798865,0.018328082212135638,0.007329347807262857,0.43736476087854875,0.031059697027145665,0.005887644653249786,0.025123468740709885,0.007986006659069353,0.002123581674448441,0.0025207525829327566,0.005297728096102691,0.004558251124570981,0.00020525027808532083
46.83699055248967,16.84592463248538,0.018328082212135638,0.007329347807262857,0.43736476087854875,0.031059697027145665,0.005887644653249786,0.025123468740709885,0.007986006659069353,0.002123581674448441,0.0025207525829327566,0.005297728096102691,0.004558251124570981,0.00020525027808532083
46.83699060332988,16.845924565157965,0.018328082212135638,0.007329347807262857,0.43736476087854875,0.031059697027145665,0.005887644653249786,0.025123468740709885,0.007986006659069353,0.002123581674448441,0.0025207525829327566,0.005297728096102691,0.004558251124570981,0.00020525027808532083
46.83699060332988,16.845924565157965,0.018328082212135638,0.007329347807262857,0.43736476087854875,0.031059697027145665,0.005887644653249786,0.025123468740709885,0.007986006659069353,0.002123581674448441,0.0025207525829327566,0.005297728096102691,0.004558251124570981,0.00020525027808532083
46.836943623277406,16.84596721189004,0.0405359948261648,0.07860574892288083,0.17476067933284167,0.12124634139002173,0.07687150326944356,0.10778991618282993,0.02332266346292111,0.06866088884300285,0.05166686059526661,0.1434373035256047,0.003310203216655172,0.0019350346917286483
46.83686616727401,16.846008781367292,0.0405359948261648,0.07860574892288083,0.17476067933284167,0.12124634139002173,0.07687150326944356,0.10778991618282993,0.02332266346292111,0.06866088884300285,0.05166686059526661,0.1434373035256047,0.003310203216655172,0.0019350346917286483
46.836798103853475,16.84604566068919,0.0405359948261648,0.07860574892288083,0.17476067933284167,0.12124634139002173,0.07687150326944356,0.10778991618282993,0.02332266346292111,0.06866088884300285,0.05166686059526661,0.1434373035256047,0.003310203216655172,0.0019350346917286483
46.8367365124702,16.84607992668931,0.0405359948261648,0.07860574892288083,0.17476067933284167,0.12124634139002173,0.07687150326944356,0.10778991618282993,0.02332266346292111,0.06866088884300285,0.05166686059526661,0.1434373035256047,0.003310203216655172,0.0019350346917286483
46.836672226587396,16.84611837820944,0.0405359948261648,0.07860574892288083,0.17476067933284167,0.12124634139002173,0.07687150326944356,0.10778991618282993,0.02332266346292111,0.06866088884300285,0.05166686059526661,0.1434373035256047,0.003310203216655172,0.0019350346917286483
46.83661142081954,16.846161297821983,0.02204413557886859,0.03514258118075644,0.08003754571036133,0.14639928954158601,0.06573035336075997,0.08662689128392712,0.039711046523120554,0.0770182191878068,0.02779054841074831,0.027236091621261355,0.0012337345898039418,0.002197382738965523
46.83655552511169,16.846204761090277,0.02204413557886859,0.03514258118075644,0.08003754571036133,0.14639928954158601,0.06573035336075997,0.08662689128392712,0.039711046523120554,0.0770182191878068,0.02779054841074831,0.027236091621261355,0.0012337345898039418,0.002197382738965523
46.83650521681292,16.84624212681192,0.02204413557886859,0.03514258118075644,0.08003754571036133,0.14639928954158601,0.06573035336075997,0.08662689128392712,0.039711046523120554,0.0770182191878068,0.02779054841074831,0.027236091621261355,0.0012337345898039418,0.002197382738965523
46.83645701833204,16.84627522505669,0.02204413557886859,0.03514258118075644,0.08003754571036133,0.14639928954158601,0.06573035336075997,0.08662689128392712,0.039711046523120554,0.0770182191878068,0.02779054841074831,0.027236091621261355,0.0012337345898039418,0.002197382738965523
46.83641011245685,16.84630527259081,0.02204413557886859,0.03514258118075644,0.08003754571036133,0.14639928954158601,0.06573035336075997,0.08662689128392712,0.039711046523120554,0.0770182191878068,0.02779054841074831,0.027236091621261355,0.0012337345898039418,0.002197382738965523
46.83635874354216,16.84633734184117,0.007668707606816364,0.01892671042965119,0.03437075451982932,0.028473834582976816,0.01824212410067319,0.02966180625150892,0.03234623558755786,0.04401213462150982,0.010225592074253295,0.02832120395343065,0.0007949418391116903,0.00047783899538861465
46.83631192398192,16.84636672099446,0.007668707606816364,0.01892671042965119,0.03437075451982932,0.028473834582976816,0.01824212410067319,0.02966180625150892,0.03234623558755786,0.04401213462150982,0.010225592074253295,0.02832120395343065,0.0007949418391116903,0.00047783899538861465
46.836260964575224,16.846397421798546,0.007668707606816364,0.01892671042965119,0.03437075451982932,0.028473834582976816,0.01824212410067319,0.02966180625150892,0.03234623558755786,0.04401213462150982,0.010225592074253295,0.02832120395343065,0.0007949418391116903,0.00047783899538861465
46.836228427931985,16.84641707428079,0.007668707606816364,0.01892671042965119,0.03437075451982932,0.028473834582976816,0.01824212410067319,0.02966180625150892,0.03234623558755786,0.04401213462150982,0.010225592074253295,0.02832120395343065,0.0007949418391116903,0.00047783899538861465
46.836171893518916,16.846453448330934,0.007668707606816364,0.01892671042965119,0.03437075451982932,0.028473834582976816,0.01824212410067319,0.02966180625150892,0.03234623558755786,0.04401213462150982,0.010225592074253295,0.02832120395343065,0.0007949418391116903,0.00047783899538861465
46.83612946735882,16.846481311072434,0.007668707606816364,0.01892671042965119,0.03437075451982932,0.028473834582976816,0.01824212410067319,0.02966180625150892,0.03234623558755786,0.04401213462150982,0.010225592074253295,0.02832120395343065,0.0007949418391116903,0.00047783899538861465
46.83607663163317,16.84651573655021,0.007668707606816364,0.01892671042965119,0.03437075451982932,0.028473834582976816,0.01824212410067319,0.02966180625150892,0.03234623558755786,0.04401213462150982,0.010225592074253295,0.02832120395343065,0.0007949418391116903,0.00047783899538861465
46.836034278750944,16.8465426293136,0.007668707606816364,0.01892671042965119,0.03437075451982932,0.028473834582976816,0.01824212410067319,0.02966180625150892,0.03234623558755786,0.04401213462150982,0.010225592074253295,0.02832120395343065,0.0007949418391116903,0.00047783899538861465
46.83597237375575,16.846580643537923,0.007668707606816364,0.01892671042965119,0.03437075451982932,0.028473834582976816,0.01824212410067319,0.02966180625150892,0.03234623558755786,0.04401213462150982,0.010225592074253295,0.02832120395343065,0.0007949418391116903,0.00047783899538861465
46.83590290279473,16.8466231394765,0.007668707606816364,0.01892671042965119,0.03437075451982932,0.028473834582976816,0.01824212410067319,0.02966180625150892,0.03234623558755786,0.04401213462150982,0.010225592074253295,0.02832120395343065,0.0007949418391116903,0.00047783899538861465
46.8358442443801,16.84664852190218,0.007668707606816364,0.01892671042965119,0.03437075451982932,0.028473834582976816,0.01824212410067319,0.02966180625150892,0.03234623558755786,0.04401213462150982,0.010225592074253295,0.02832120395343065,0.0007949418391116903,0.00047783899538861465
46.835757337540414,16.8466808674369,0.007668707606816364,0.01892671042965119,0.03437075451982932,0.028473834582976816,0.01824212410067319,0.02966180625150892,0.03234623558755786,0.04401213462150982,0.010225592074253295,0.02832120395343065,0.0007949418391116903,0.00047783899538861465
46.83567864475217,16.846709412838813,0.007668707606816364,0.01892671042965119,0.03437075451982932,0.028473834582976816,0.01824212410067319,0.02966180625150892,0.03234623558755786,0.04401213462150982,0.010225592074253295,0.02832120395343065,0.0007949418391116903,0.00047783899538861465
46.83563383546897,16.8467238497371,0.007668707606816364,0.01892671042965119,0.03437075451982932,0.028473834582976816,0.01824212410067319,0.02966180625150892,0.03234623558755786,0.04401213462150982,0.010225592074253295,0.02832120395343065,0.0007949418391116903,0.00047783899538861465
46.835562610518465,16.846745143072848,0.007668707606816364,0.01892671042965119,0.03437075451982932,0.028473834582976816,0.01824212410067319,0.02966180625150892,0.03234623558755786,0.04401213462150982,0.010225592074253295,0.02832120395343065,0.0007949418391116903,0.00047783899538861465
46.83550993912441,16.846762938857253,0.007668707606816364,0.01892671042965119,0.03437075451982932,0.028473834582976816,0.01824212410067319,0.02966180625150892,0.03234623558755786,0.04401213462150982,0.010225592074253295,0.02832120395343065,0.0007949418391116903,0.00047783899538861465
46.83544353865717,16.84678650037957,0.007668707606816364,0.01892671042965119,0.03437075451982932,0.028473834582976816,0.01824212410067319,0.02966180625150892,0.03234623558755786,0.04401213462150982,0.010225592074253295,0.02832120395343065,0.0007949418391116903,0.00047783899538861465
46.83541045917316,16.846797991669302,0.007668707606816364,0.01892671042965119,0.03437075451982932,0.028473834582976816,0.01824212410067319,0.02966180625150892,0.03234623558755786,0.04401213462150982,0.010225592074253295,0.02832120395343065,0.0007949418391116903,0.00047783899538861465
46.8353651622154,16.846813787737524,0.007668707606816364,0.01892671042965119,0.03437075451982932,0.028473834582976816,0.01824212410067319,0.02966180625150892,0.03234623558755786,0.04401213462150982,0.010225592074253295,0.02832120395343065,0.0007949418391116903,0.00047783899538861465
46.83532027520003,16.84682954633761,0.007668707606816364,0.01892671042965119,0.03437075451982932,0.028473834582976816,0.01824212410067319,0.02966180625150892,0.03234623558755786,0.04401213462150982,0.010225592074253295,0.02832120395343065,0.0007949418391116903,0.00047783899538861465
46.8352720203825,16.846846481626695,0.07652078482798787,0.16515207497470014,0.015702038396210132,0.07231563713507556,0.09201551961579925,0.17092735193836037,0.06514238533466057,0.0850025975837542,0.21778370944615533,0.3969622877282554,0.0015386543516287769,0.0019553879052618475
46.83522248736291,16.846863783138566,0.07652078482798787,0.16515207497470014,0.015702038396210132,0.07231563713507556,0.09201551961579925,0.17092735193836037,0.06514238533466057,0.0850025975837542,0.21778370944615533,0.3969622877282554,0.0015386543516287769,0.0019553879052618475
46.835178002215635,16.846878629754986,0.07652078482798787,0.16515207497470014,0.015702038396210132,0.07231563713507556,0.09201551961579925,0.17092735193836037,0.06514238533466057,0.0850025975837542,0.21778370944615533,0.3969622877282554,0.0015386543516287769,0.0019553879052618475
46.83510610394917,16.846900589183317,0.07652078482798787,0.16515207497470014,0.015702038396210132,0.07231563713507556,0.09201551961579925,0.17092735193836037,0.06514238533466057,0.0850025975837542,0.21778370944615533,0.3969622877282554,0.0015386543516287769,0.0019553879052618475
46.835069129995645,16.846913032326444,0.07652078482798787,0.16515207497470014,0.015702038396210132,0.07231563713507556,0.09201551961579925,0.17092735193836037,0.06514238533466057,0.0850025975837542,0.21778370944615533,0.3969622877282554,0.0015386543516287769,0.0019553879052618475
46.83500152341813,16.846935515578732,0.057515771285154414,0.03632755797514363,0.08081656316389578,0.2286363089557363,0.09135463635502936,0.3371185334480646,0.1751157080934409,0.13140004891905901,0.16463325919558988,0.38683868553598166,0.0003978396692335648,0.0007628503226016789
46.83492420272026,16.846960962134915,0.057515771285154414,0.03632755797514363,0.08081656316389578,0.2286363089557363,0.09135463635502936,0.3371185334480646,0.1751157080934409,0.13140004891905901,0.16463325919558988,0.38683868553598166,0.0003978396692335648,0.0007628503226016789
46.83484729535755,16.846986026483055,0.057515771285154414,0.03632755797514363,0.08081656316389578,0.2286363089557363,0.09135463635502936,0.3371185334480646,0.1751157080934409,0.13140004891905901,0.16463325919558988,0.38683868553598166,0.0003978396692335648,0.0007628503226016789
46.83479650354308,16.847001049711167,0.057515771285154414,0.03632755797514363,0.08081656316389578,0.2286363089557363,0.09135463635502936,0.3371185334480646,0.1751157080934409,0.13140004891905901,0.16463325919558988,0.38683868553598166,0.0003978396692335648,0.0007628503226016789
46.83473300770577,16.847023233171534,0.057515771285154414,0.03632755797514363,0.08081656316389578,0.2286363089557363,0.09135463635502936,0.3371185334480646,0.1751157080934409,0.13140004891905901,0.16463325919558988,0.38683868553598166,0.0003978396692335648,0.0007628503226016789
46.834679197841346,16.84704360763498,0.006382182507820905,0.013668748454615244,0.02939756369003382,0.023173695528610733,0.008987259361888912,0.01997860887809421,0.008428914420585708,0.014035712980432526,0.01440939188995145,0.04799933688597346,0.00036095499601582155,0.00048629046831198534
46.8346578401368,16.847051816721297,0.006382182507820905,0.013668748454615244,0.02939756369003382,0.023173695528610733,0.008987259361888912,0.01997860887809421,0.008428914420585708,0.014035712980432526,0.01440939188995145,0.04799933688597346,0.00036095499601582155,0.00048629046831198534
46.83461558121945,16.847068033575493,0.006382182507820905,0.013668748454615244,0.02939756369003382,0.023173695528610733,0.008987259361888912,0.01997860887809421,0.008428914420585708,0.014035712980432526,0.01440939188995145,0.04799933688597346,0.00036095499601582155,0.00048629046831198534
46.83458214947354,16.84708058923486,0.006382182507820905,0.013668748454615244,0.02939756369003382,0.023173695528610733,0.008987259361888912,0.01997860887809421,0.008428914420585708,0.014035712980432526,0.01440939188995145,0.04799933688597346,0.00036095499601582155,0.00048629046831198534
46.83456423829045,16.847087231451436,0.006382182507820905,0.013668748454615244,0.02939756369003382,0.023173695528610733,0.008987259361888912,0.01997860887809421,0.008428914420585708,0.014035712980432526,0.01440939188995145,0.04799933688597346,0.00036095499601582155,0.00048629046831198534
46.83452474306975,16.847101516951724,0.006382182507820905,0.013668748454615244,0.02939756369003382,0.023173695528610733,0.008987259361888912,0.01997860887809421,0.008428914420585708,0.014035712980432526,0.01440939188995145,0.04799933688597346,0.00036095499601582155,0.00048629046831198534
46.83449967161642,16.847110329256623,0.006382182507820905,0.013668748454615244,0.02939756369003382,0.023173695528610733,0.008987259361888912,0.01997860887809421,0.008428914420585708,0.014035712980432526,0.01440939188995145,0.04799933688597346,0.00036095499601582155,0.00048629046831198534
46.834468246250246,16.84712110421456,0.006382182507820905,0.013668748454615244,0.02939756369003382,0.023173695528610733,0.008987259361888912,0.01997860887809421,0.008428914420585708,0.014035712980432526,0.01440939188995145,0.04799933688597346,0.00036095499601582155,0.00048629046831198534
46.834433091138656,16.84713269038726,0.006382182507820905,0.013668748454615244,0.02939756369003382,0.023173695528610733,0.008987259361888912,0.01997860887809421,0.008428914420585708,0.014035712980432526,0.01440939188995145,0.04799933688597346,0.00036095499601582155,0.00048629046831198534
46.83439726120777,16.847143831853543,0.006382182507820905,0.013668748454615244,0.02939756369003382,0.023173695528610733,0.008987259361888912,0.01997860887809421,0.008428914420585708,0.014035712980432526,0.01440939188995145,0.04799933688597346,0.00036095499601582155,0.00048629046831198534
46.834372427055044,16.847151166324956,0.006382182507820905,0.013668748454615244,0.02939756369003382,0.023173695528610733,0.008987259361888912,0.01997860887809421,0.008428914420585708,0.014035712980432526,0.01440939188995145,0.04799933688597346,0.00036095499601582155,0.00048629046831198534
46.834342677550495,16.847159740250635,0.006382182507820905,0.013668748454615244,0.02939756369003382,0.023173695528610733,0.008987259361888912,0.01997860887809421,0.008428914420585708,0.014035712980432526,0.01440939188995145,0.04799933688597346,0.00036095499601582155,0.00048629046831198534
46.83431504107882,16.847167774020708,0.006382182507820905,0.013668748454615244,0.02939756369003382,0.023173695528610733,0.008987259361888912,0.01997860887809421,0.008428914420585708,0.014035712980432526,0.01440939188995145,0.04799933688597346,0.00036095499601582155,0.00048629046831198534
46.834287921357316,16.84717572644965,0.006382182507820905,0.013668748454615244,0.02939756369003382,0.023173695528610733,0.008987259361888912,0.01997860887809421,0.008428914420585708,0.014035712980432526,0.01440939188995145,0.04799933688597346,0.00036095499601582155,0.00048629046831198534
46.83427683062927,16.847178981465625,0.006382182507820905,0.013668748454615244,0.02939756369003382,0.023173695528610733,0.008987259361888912,0.01997860887809421,0.008428914420585708,0.014035712980432526,0.01440939188995145,0.04799933688597346,0.00036095499601582155,0.00048629046831198534
46.834233000800324,16.84719213961825,0.014132533709648273,0.0518068665737459,0.006739751047792753,0.019450884513504036,0.017246088527607225,0.07921368067146943,0.01787642576270161,0.06722921721374574,0.025091525395748396,0.06414947728112433,2.9886978367858874e-05,0.0004127215392836184
46.83420365688906,16.847201154305413,0.014132533709648273,0.0518068665737459,0.006739751047792753,0.019450884513504036,0.017246088527607225,0.07921368067146943,0.01787642576270161,0.06722921721374574,0.025091525395748396,0.06414947728112433,2.9886978367858874e-05,0.0004127215392836184
46.834177047462724,16.847209455349173,0.014132533709648273,0.0518068665737459,0.006739751047792753,0.019450884513504036,0.017246088527607225,0.07921368067146943,0.01787642576270161,0.06722921721374574,0.025091525395748396,0.06414947728112433,2.9886978367858874e-05,0.0004127215392836184
46.83414719293169,16.84721643597202,0.014132533709648273,0.0518068665737459,0.006739751047792753,0.019450884513504036,0.017246088527607225,0.07921368067146943,0.01787642576270161,0.06722921721374574,0.025091525395748396,0.06414947728112433,2.9886978367858874e-05,0.0004127215392836184
46.83412017655285,16.84721938302308,0.014132533709648273,0.0518068665737459,0.006739751047792753,0.019450884513504036,0.017246088527607225,0.07921368067146943,0.01787642576270161,0.06722921721374574,0.025091525395748396,0.06414947728112433,2.9886978367858874e-05,0.0004127215392836184
46.83409156619658,16.84721897777806,0.04280139655822709,0.05418835885645801,0.04488291474792278,0.034180592631334716,0.08954345941675936,0.10627720176755831,0.04326989863523502,0.05497690423728785,0.04863012943811001,0.13129929904469784,0.00229220332483998,0.0007997367414382203
46.834064694021805,16.84721728075352,0.04280139655822709,0.05418835885645801,0.04488291474792278,0.034180592631334716,0.08954345941675936,0.10627720176755831,0.04326989863523502,0.05497690423728785,0.04863012943811001,0.13129929904469784,0.00229220332483998,0.0007997367414382203
46.83403730708332,16.84721798468668,0.04280139655822709,0.05418835885645801,0.04488291474792278,0.034180592631334716,0.08954345941675936,0.10627720176755831,0.04326989863523502,0.05497690423728785,0.04863012943811001,0.13129929904469784,0.00229220332483998,0.0007997367414382203
46.83400233388159,16.847222686205036,0.04280139655822709,0.05418835885645801,0.04488291474792278,0.034180592631334716,0.08954345941675936,0.10627720176755831,0.04326989863523502,0.05497690423728785,0.04863012943811001,0.13129929904469784,0.00229220332483998,0.0007997367414382203
46.833970626530075,16.847230335474794,0.04280139655822709,0.05418835885645801,0.04488291474792278,0.034180592631334716,0.08954345941675936,0.10627720176755831,0.04326989863523502,0.05497690423728785,0.04863012943811001,0.13129929904469784,0.00229220332483998,0.0007997367414382203
46.83393774790061,16.84724078023157,0.049354920575504474,0.06613319834380828,0.024191998535453244,0.027724683867186642,0.07385978546534377,0.04758676806709686,0.048676704713883,0.06326740730076011,0.046252304509544116,0.05376967386192591,0.001530047419163018,0.0013337582645013715
46.83391702192584,16.847248678673704,0.049354920575504474,0.06613319834380828,0.024191998535453244,0.027724683867186642,0.07385978546534377,0.04758676806709686,0.048676704713883,0.06326740730076011,0.046252304509544116,0.05376967386192591,0.001530047419163018,0.0013337582645013715
46.83388169179483,16.847264217240305,0.049354920575504474,0.06613319834380828,0.024191998535453244,0.027724683867186642,0.07385978546534377,0.04758676806709686,0.048676704713883,0.06326740730076011,0.046252304509544116,0.05376967386192591,0.001530047419163018,0.0013337582645013715
46.83385210237662,16.847278641631497,0.049354920575504474,0.06613319834380828,0.024191998535453244,0.027724683867186642,0.07385978546534377,0.04758676806709686,0.048676704713883,0.06326740730076011,0.046252304509544116,0.05376967386192591,0.001530047419163018,0.0013337582645013715
46.83380096027217,16.847305630004577,0.049354920575504474,0.06613319834380828,0.024191998535453244,0.027724683867186642,0.07385978546534377,0.04758676806709686,0.048676704713883,0.06326740730076011,0.046252304509544116,0.05376967386192591,0.001530047419163018,0.0013337582645013715
46.833765247320954,16.847319057840423,0.049354920575504474,0.06613319834380828,0.024191998535453244,0.027724683867186642,0.07385978546534377,0.04758676806709686,0.048676704713883,0.06326740730076011,0.046252304509544116,0.05376967386192591,0.001530047419163018,0.0013337582645013715
46.83374307498026,16.847324088060166,0.049354920575504474,0.06613319834380828,0.024191998535453244,0.027724683867186642,0.07385978546534377,0.04758676806709686,0.048676704713883,0.06326740730076011,0.046252304509544116,0.05376967386192591,0.001530047419163018,0.0013337582645013715
46.83370422919817,16.84732986375416,0.049354920575504474,0.06613319834380828,0.024191998535453244,0.027724683867186642,0.07385978546534377,0.04758676806709686,0.048676704713883,0.06326740730076011,0.046252304509544116,0.05376967386192591,0.001530047419163018,0.0013337582645013715
46.8336703246925,16.84733428792769,0.049354920575504474,0.06613319834380828,0.024191998535453244,0.027724683867186642,0.07385978546534377,0.04758676806709686,0.048676704713883,0.06326740730076011,0.046252304509544116,0.05376967386192591,0.001530047419163018,0.0013337582645013715
46.833638124107026,16.847338038968307,0.049354920575504474,0.06613319834380828,0.024191998535453244,0.027724683867186642,0.07385978546534377,0.04758676806709686,0.048676704713883,0.06326740730076011,0.046252304509544116,0.05376967386192591,0.001530047419163018,0.0013337582645013715
46.833606839789,16.8473414918623,0.00233214519369569,0.03632755797514363,0.2064470508901991,0.10172193941936755,0.13446161646355392,0.19477689032057982,0.041144010205654905,0.08893268246383611,0.0774842275290095,0.08401212942225399,0.0013379485369900573,0.0007628503226016789
46.83356640248281,16.847345530670847,0.00233214519369569,0.03632755797514363,0.2064470508901991,0.10172193941936755,0.13446161646355392,0.19477689032057982,0.041144010205654905,0.08893268246383611,0.0774842275290095,0.08401212942225399,0.0013379485369900573,0.0007628503226016789
46.83351077548036,16.847347692761524,0.00233214519369569,0.03632755797514363,0.2064470508901991,0.10172193941936755,0.13446161646355392,0.19477689032057982,0.041144010205654905,0.08893268246383611,0.0774842275290095,0.08401212942225399,0.0013379485369900573,0.0007628503226016789
46.833461738032604,16.84734832455043,0.00233214519369569,0.03632755797514363,0.2064470508901991,0.10172193941936755,0.13446161646355392,0.19477689032057982,0.041144010205654905,0.08893268246383611,0.0774842275290095,0.08401212942225399,0.0013379485369900573,0.0007628503226016789
46.83343354040914,16.847349174209967,0.00233214519369569,0.03632755797514363,0.2064470508901991,0.10172193941936755,0.13446161646355392,0.19477689032057982,0.041144010205654905,0.08893268246383611,0.0774842275290095,0.08401212942225399,0.0013379485369900573,0.0007628503226016789
46.83339553180743,16.84735140675759,0.03512834335905926,0.038986070051675564,0.08895749036492853,0.045102179758558326,0.0619150836596447,0.03367406253085385,0.09357951996421336,0.025014769851078866,0.019665594304856485,0.051298509668535414,0.0017477356880508514,0.0022093962448090842
46.8333487972406,16.847355709046766,0.03512834335905926,0.038986070051675564,0.08895749036492853,0.045102179758558326,0.0619150836596447,0.03367406253085385,0.09357951996421336,0.025014769851078866,0.019665594304856485,0.051298509668535414,0.0017477356880508514,0.0022093962448090842
46.833321991127946,16.84735884855369,0.03512834335905926,0.038986070051675564,0.08895749036492853,0.045102179758558326,0.0619150836596447,0.03367406253085385,0.09357951996421336,0.025014769851078866,0.019665594304856485,0.051298509668535414,0.0017477356880508514,0.0022093962448090842
46.83329282437919,16.84736277544693,0.03512834335905926,0.038986070051675564,0.08895749036492853,0.045102179758558326,0.0619150836596447,0.03367406253085385,0.09357951996421336,0.025014769851078866,0.019665594304856485,0.051298509668535414,0.0017477356880508514,0.0022093962448090842
46.83324638491486,16.847370364009556,0.03512834335905926,0.038986070051675564,0.08895749036492853,0.045102179758558326,0.0619150836596447,0.03367406253085385,0.09357951996421336,0.025014769851078866,0.019665594304856485,0.051298509668535414,0.0017477356880508514,0.0022093962448090842
46.83321052177777,16.84737772535268,0.026379305127356503,0.024930948710182643,0.02011373687806941,0.03320450013731521,0.03837047635521,0.019532554540688925,0.02956599746193044,0.04196548234370323,0.03374619134578664,0.02438229105212867,0.0009246264014248019,0.0010433597558947385
46.833177454589084,16.847385407213746,0.026379305127356503,0.024930948710182643,0.02011373687806941,0.03320450013731521,0.03837047635521,0.019532554540688925,0.02956599746193044,0.04196548234370323,0.03374619134578664,0.02438229105212867,0.0009246264014248019,0.0010433597558947385
46.833130627433476,16.847396437011998,0.026379305127356503,0.024930948710182643,0.02011373687806941,0.03320450013731521,0.03837047635521,0.019532554540688925,0.02956599746193044,0.04196548234370323,0.03374619134578664,0.02438229105212867,0.0009246264014248019,0.0010433597558947385
46.83310228709866,16.847403081264872,0.026379305127356503,0.024930948710182643,0.02011373687806941,0.03320450013731521,0.03837047635521,0.019532554540688925,0.02956599746193044,0.04196548234370323,0.03374619134578664,0.02438229105212867,0.0009246264014248019,0.0010433597558947385
46.83305325979254,16.847414095160506,0.026379305127356503,0.024930948710182643,0.02011373687806941,0.03320450013731521,0.03837047635521,0.019532554540688925,0.02956599746193044,0.04196548234370323,0.03374619134578664,0.02438229105212867,0.0009246264014248019,0.0010433597558947385
46.83301462486875,16.84742246504505,0.026379305127356503,0.024930948710182643,0.02011373687806941,0.03320450013731521,0.03837047635521,0.019532554540688925,0.02956599746193044,0.04196548234370323,0.03374619134578664,0.02438229105212867,0.0009246264014248019,0.0010433597558947385
