time,seconds_elapsed,z,y,x
1728303244752605400,0.15660546875,-0.521502246671915,0.09233795496025123,0.14125530413333326
1728303244762665500,0.16666552734375,-0.02663198633790016,0.24423211460830643,0.2226099740553647
1728303244772725500,0.1767255859375,-0.12415887911021709,0.26089034914355724,-0.005885404776781797
1728303244782785500,0.18678564453125,-0.3587672609299421,0.29442736562956123,0.07268630162952468
1728303244792845600,0.196845458984375,0.10602584104835987,0.15263616452123968,-0.038184221237339076
1728303244802905600,0.206905517578125,-0.20266893672347067,0.26335303119635206,-0.091699666189868
1728303244812965600,0.216965576171875,-0.143417121809721,0.18857110899444668,-0.2992519362417981
1728303244823025400,0.227025390625,0.1570411580145359,0.14462067978004925,-0.07221910424288362
1728303244833085400,0.23708544921875,-0.17260580689311025,0.11169642489752732,-0.2746295726932585
1728303244843145700,0.247145751953125,-0.16319968064427376,0.08880905018174089,-0.3432776500489563
1728303244853205500,0.25720556640625,0.44281800153553486,0.11197836537775582,-0.19650097041195258
1728303244863265500,0.267265625,-0.011942366728186606,0.10687909687682985,-0.4322155781742185
1728303244873325600,0.27732568359375,0.007059855383634567,-0.00026829554736614226,-0.3137374481141567
1728303244883385600,0.287385498046875,0.2395902618855238,0.1467277167955879,-0.25562400784688066
1728303244893445400,0.2974453125,-0.06984685868620873,0.07139537133642006,-0.3627341917995363
1728303244903505700,0.307505615234375,0.4863146134346723,-0.2037458817726001,-0.3976252532429993
1728303244913565700,0.317565673828125,0.45039808140099047,0.2785745291930623,-0.2993471402445808
1728303244923625500,0.32762548828125,-0.2573760939449072,0.08313941618064417,-0.25950749821672214
1728303244933685500,0.337685546875,0.21650456985235214,-0.08174421722888946,-0.24563230026243252
1728303244943745500,0.34774560546875,0.4789519757121801,0.20131832583211362,-0.16880849696937947
1728303244953805600,0.3578056640625,0.23801029921770095,0.37708471564799545,-0.402369707823731
1728303244963865600,0.367865478515625,0.34334932704567905,0.8735665758971124,-0.3326937852576375
1728303244973925600,0.377925537109375,0.7108230415225029,1.3475439050018787,-0.45510618602670727
1728303244983985700,0.387985595703125,0.5290501778334379,1.494856572945416,-0.6292301423978061
1728303244994045400,0.39804541015625,-1.2260697349309921,0.7414318225368857,-0.3654506842166185
1728303245004104700,0.408104736328125,-1.6248264764219522,-1.875518124166876,0.983216087335348
1728303245014164500,0.41816455078125,0.8406061902552843,-1.523745106038451,0.9945420757308602
1728303245024224500,0.428224609375,0.043916883137822146,-0.845517708498612,0.5606116564627737
1728303245034284500,0.438284423828125,0.003973579806089401,0.482832835733518,-0.14333791909366844
1728303245044344600,0.448344482421875,-0.5369704494386911,0.017318447443074547,0.2373232485353015
1728303245054404600,0.458404541015625,0.03029401597678661,0.12206788904718123,0.11639757919264956
1728303245064464600,0.468464599609375,-0.22616379407942294,0.17089834538809953,0.026236995670944452
1728303245074524700,0.478524658203125,-0.8324690610289573,0.22297794885123148,0.12040319810481741
1728303245084584400,0.48858447265625,0.2694797887146473,-0.05480050719385035,0.14743656831784174
1728303245094644500,0.49864453125,0.18076631699502468,0.22926723998747764,0.09244712355630472
1728303245104704500,0.50870458984375,-0.4457254134148359,-0.0011292049593292176,-0.00489405565187335
1728303245114764500,0.5187646484375,0.12787760737240314,-0.021367672601528463,0.15900489583555608
1728303245124824600,0.528824462890625,-0.0818558609098196,0.10514436377240344,0.1658956782625988
1728303245134884600,0.538884521484375,0.18513737168610095,-0.10827270665969699,0.02802598884641193
1728303245144944400,0.5489443359375,0.384482132422924,0.01826923622873146,0.07264414298823103
1728303245155004400,0.55900439453125,-0.076937109208107,0.0704586887079291,0.06776969621912576
1728303245165064400,0.569064453125,-0.16278233201503753,-0.055224171399441545,0.06302753406018019
1728303245175124700,0.579124755859375,0.7859428721755742,0.030399892070633358,-0.0699599728050176
1728303245185184500,0.5891845703125,0.37102234686911106,-0.06540230493408161,-0.13843634685561992
1728303245195244500,0.59924462890625,0.0874848067075014,-0.1748344061953947,-0.2615981686193496
1728303245205304600,0.6093046875,0.5585632725656032,-0.10361618609074502,-0.2535063215731643
1728303245215364400,0.6193642578125,0.292977568680048,0.012426912541850469,-0.25823928664550183
1728303245225424600,0.629424560546875,0.44889469110071656,-0.2861107516504824,-0.550000794066675
1728303245235484700,0.639484619140625,0.9417910210132598,-0.019107760278950444,-0.44704888057094067
1728303245245544400,0.64954443359375,-0.06525017854571342,0.022599949776264838,-0.4214584757078439
1728303245255604500,0.6596044921875,-0.05566811120808124,-0.1865655413256958,-0.3806618069497868
1728303245265664500,0.66966455078125,1.0526888520121573,-0.10348320736084132,-0.478711773748137
1728303245275724500,0.679724609375,0.2786199575036764,0.18191872016685082,-0.3609693740841001
1728303245285784600,0.68978466796875,-0.19616846878826616,-0.22559889020565896,-0.4566822031717747
1728303245295844600,0.6998447265625,0.3214326787918806,-0.006971839173464104,-0.12746930969930254
1728303245305904600,0.709904541015625,0.00854629454910755,0.13725674514961428,-0.23320567541494963
1728303245315964400,0.71996435546875,0.08321253621578216,-0.16873954165270552,-0.4534959743510931
1728303245326024400,0.7300244140625,0.18435235878825187,0.026590444184537043,-0.037354035757202655
1728303245336084500,0.74008447265625,-0.29552433055341243,0.1475137069409713,-0.10449607419781386
1728303245346144500,0.75014453125,-0.5250649075895547,-0.036886500443844124,-0.2204218528939411
1728303245356204500,0.76020458984375,0.1810574088960886,0.031242704136902465,-0.04034271444547921
1728303245366264600,0.7702646484375,-0.22237083153724668,0.1396036644687876,0.00537974767643027
1728303245376324600,0.78032470703125,-0.49772155811190605,-0.0699871576394653,-0.0035010486572049555
1728303245386384400,0.79038427734375,-0.015607903498411178,-0.11706033568400889,0.0944749761220999
1728303245396444700,0.800444580078125,-0.500284102076292,-0.025809719302738083,0.12392875101561657
1728303245406504700,0.810504638671875,0.028364509218931196,-0.0960430382895749,0.03658211980294436
1728303245416564500,0.820564453125,0.34496669911444183,-0.09753491168199106,0.02349821835681796
1728303245426624500,0.83062451171875,-0.16574819608330726,-0.19639535461300983,-0.0017732567502185702
1728303245436684500,0.8406845703125,0.03265957606434822,-0.1743687979776412,-0.009603164924588055
1728303245446744300,0.850744384765625,0.7294932552009821,-0.06592479900480247,-0.06956149327303282
1728303245456804600,0.8608046875,0.1493377440303564,-0.19089925968106836,-0.062283876086026424
1728303245466865200,0.870865234375,0.12028349898159503,-0.2648853370638564,-0.058995803459221494
1728303245476925200,0.88092529296875,0.8310445811837911,-0.1622008058000356,-0.2021107548514381
1728303245486984000,0.89098388671875,-0.014561024793982505,-0.11953790477868169,-0.15394516476057468
1728303245497044000,0.9010439453125,0.4865677114129066,-0.15833740837015212,-0.11649125795862637
1728303245507104300,0.911104248046875,0.814696088451147,-0.07670398543882183,-0.19609752244390546
1728303245517164300,0.921164306640625,0.028956629893183705,-0.14641875131111592,-0.37691341420169916
1728303245527224000,0.93122412109375,-0.08760112656354904,-0.21224912263127044,-0.2366737716506235
1728303245537284000,0.9412841796875,0.7844938424110413,0.047042431279830633,-0.06113474258352071
1728303245547344100,0.95134423828125,0.07686521301567555,-0.04528621699595824,-0.21147616549739612
1728303245557404200,0.961404052734375,0.05696574980318546,-0.1451560104994569,-0.2224269091060385
1728303245567464200,0.971464111328125,0.3713613695651293,-0.06194785819784738,-0.019840326036931945
1728303245577524200,0.981524169921875,-0.4406973561197519,0.05809234268032014,0.11247098946659825
1728303245587584000,0.991583984375,-0.01227729777097702,-0.1486102152070962,0.022599716880824416
1728303245597644000,1.00164404296875,0.7483212897896766,0.016933060288103298,0.05141722143110819
1728303245607704000,1.0117041015625,-0.06526479159295559,-0.019610672866366804,-0.03343457902483642
1728303245617764400,1.021764404296875,-0.24244506679475306,-0.11619863168760203,-0.016496568566979838
1728303245627824000,1.03182421875,0.2713905907720327,-0.16544870168007908,0.09546435248563065
1728303245637884200,1.04188427734375,-0.1444663386017084,0.004725731613952666,-0.09005156105612404
1728303245647944200,1.051944091796875,-0.06099719727635383,-0.11082827289402485,-0.07457156738685443
1728303245658004000,1.06200390625,0.4350006057828665,-0.13579519383022562,0.015246668970584869
1728303245668064000,1.07206396484375,0.03018646394908428,-0.09947209028964861,-0.1351838387325406
1728303245678124300,1.082124267578125,0.006042202773690223,-0.09916427558264694,-0.13877752497610635
1728303245688184000,1.09218408203125,0.3932417774617672,-0.09060599833480082,-0.16562583007896317
1728303245698244000,1.102244140625,-0.2378250057786703,-0.20552569612776858,-0.2051753117875196
1728303245708304100,1.11230419921875,0.14832476759552954,-0.1945627140920609,-0.2389942687537521
1728303245718364200,1.1223642578125,0.7110410681873559,-0.047174113101791586,-0.2640161530138925
1728303245728424200,1.132424072265625,-0.1908686088144779,-0.14379011984057724,-0.24661354811843483
1728303245738484200,1.142484130859375,0.2897083377510309,-0.2991231952955946,-0.3513819729842245
1728303245748544300,1.152544189453125,0.8132225087672471,-0.030682503837719557,-0.23359893078254534
1728303245758604000,1.16260400390625,-0.12938801193535326,-0.1638021765820682,-0.30385272630183024
1728303245768664000,1.1726640625,-0.1789694967061281,-0.16539236838296054,-0.15882721944740041
1728303245778724000,1.18272412109375,0.6408464189767837,-0.10156761039732955,-0.16210562006356194
1728303245788784000,1.1927841796875,-0.062490650704503055,-0.0608842384211719,-0.2557440905625932
1728303245798844200,1.20284423828125,0.2317950779646635,-0.14639045679839327,-0.1266320460244082
1728303245808904200,1.212904296875,0.5058873289108277,-0.12591013409118168,-0.0922238544607535
1728303245818964200,1.222964111328125,-0.41201778960227964,-0.2421938502463512,-0.10842959598815068
1728303245829024000,1.23302392578125,0.2515741296678781,-0.17358541078129783,-0.1302376327683218
1728303245839084000,1.243083984375,0.46837446759641166,-0.020379858007421717,-0.052150641139037904
1728303245849144300,1.253144287109375,-0.07499532749056816,-0.24815690510291605,-0.03762870624642819
1728303245859204000,1.2632041015625,0.21481705515682695,-0.13893195748599246,0.024171459709573535
1728303245869264100,1.27326416015625,0.35800679795145984,-0.015110895495396107,-0.016775266777351496
1728303245879324200,1.28332421875,-0.1736626224696636,-0.13065930137964896,0.005218392235413194
1728303245889384000,1.293384033203125,0.28675416412055493,-0.02593087973068468,0.16047562597524373
1728303245899444200,1.3034443359375,0.43221594350039955,0.03981598715763539,0.09243514085756614
1728303245909504300,1.313504150390625,-0.2577490189105272,-0.1815098653713241,0.05886807629317045
1728303245919564300,1.323564208984375,0.23411504534482955,-0.05600244859582744,0.08614955778205767
1728303245929624000,1.3336240234375,0.24895547160208223,0.07094027081294917,0.14987082799375057
1728303245939684000,1.34368408203125,-0.17195348046422004,-0.018987216338934375,0.08560394313065335
1728303245949744000,1.353744140625,0.18254560162723063,-0.05843957608225755,0.020624416486173868
1728303245959804200,1.36380419921875,0.035625440132617946,0.22397886952208354,0.03296789309484884
1728303245969864200,1.3738642578125,-0.3510194232821464,0.00196032202122733,0.006473689526133239
1728303245979924200,1.38392431640625,0.33160978941321373,-0.06361261307229288,-0.000423760103713721
1728303245989984000,1.39398388671875,-0.10963701728284359,0.13488755919970571,-0.08536516593871638
1728303246000044000,1.4040439453125,-0.42009938924908635,0.09242817226066254,-0.033129549929965287
1728303246010104000,1.41410400390625,0.08536123868227005,-0.07691139024496078,0.0052135699298232795
1728303246020164000,1.4241640625,0.2362088027536869,-0.021573387774080036,-0.24050900243194773
1728303246030224100,1.43422412109375,-0.2705798589110374,0.06382187190880068,-0.12893847806956618
1728303246040284200,1.4442841796875,-0.09009703503251075,0.051352549563907085,-0.03926060003088787
1728303246050344200,1.45434423828125,0.052099605071544645,-0.016921086722519248,-0.23358081060396507
1728303246060404000,1.464404052734375,-0.2190069080621004,0.0813480301186908,-0.2740141442086547
1728303246070464300,1.47446435546875,0.2924848167270422,0.1972500900125131,-0.05574952414752915
1728303246080524300,1.484524169921875,-0.1655243241995573,-0.010704522895766422,-0.23361655777078122
1728303246090584000,1.494583984375,-0.15620646075606345,0.054915822402900084,-0.1400424212122336
1728303246100644000,1.50464404296875,0.21298808616399764,0.2549067446893081,-0.06146744513660669
1728303246110704000,1.5147041015625,-0.17500293116271495,0.08119143305118195,-0.14010860004993156
1728303246120764000,1.524763916015625,-0.17049042217433452,-0.03961582494303584,-0.26266064675170925
1728303246130824200,1.53482421875,0.12536883942186833,0.23298649797262622,-0.07989538362496532
1728303246140884200,1.54488427734375,-0.20948504647910593,0.22079852245291692,-0.05299684617221355
1728303246150944300,1.5549443359375,-0.0143652099609375,-0.04328771838881075,-0.2899138702604919
1728303246161004000,1.565004150390625,0.11972469605505466,0.30013094756603237,-0.06905274916645139
1728303246171064000,1.57506396484375,-0.15363631800711153,0.25952581932470203,-0.22059856116771698
1728303246181124000,1.5851240234375,-0.3011766572266817,0.214539114998281,-0.09994895055377856
1728303246191184100,1.59518408203125,0.35798926229476924,0.2529170687094331,-0.062432308113388714
1728303246201244200,1.605244140625,-0.33120237765610216,0.38424357442669566,-0.07242860967456363
1728303246211304200,1.61530419921875,-0.32101591468453405,0.18998459252156316,-0.15673846700722352
1728303246221364000,1.625364013671875,0.27514439034759997,0.2894870231505483,-0.024477356454124674
1728303246231424000,1.635424072265625,-0.2034995423287153,0.37324433376751837,-0.03966570109990425
1728303246241484300,1.645484375,-0.36569852149784565,0.21126281500766053,-0.17518811500389128
1728303246251544300,1.65554443359375,0.3810048117011785,0.2584394853927195,-0.020706669675838202
1728303246261604000,1.66560400390625,-0.11083178002536297,0.3099007925607264,-0.14604180775750428
1728303246271664000,1.6756640625,-0.36220717225074767,0.22276593180205673,-0.11965441643097437
1728303246281724200,1.68572412109375,0.5784031145453453,0.20699098290735854,-0.08552493221084587
1728303246291784000,1.695783935546875,0.43506139605939387,0.2450652957631275,-0.23478399411495773
1728303246301844200,1.70584423828125,-0.17845394839942455,0.15423110556248573,-0.145843298643874
1728303246311904300,1.715904296875,0.6708709703624248,0.17137378088012337,-0.03645526941972785
1728303246321964000,1.725964111328125,0.4247130205243826,0.26446842682603744,-0.1961706242127344
1728303246332024000,1.736024169921875,-0.194646958309412,0.055291569513268767,-0.2529262749291956
1728303246342084000,1.746083984375,0.8544342245995998,0.10600674362224526,-0.14704693881259298
1728303246352144100,1.75614404296875,0.7420376794755459,0.21851587314214557,-0.2868530213851482
1728303246362204200,1.7662041015625,-0.22388591227531432,0.10891517841485328,-0.22173443332985043
1728303246372264200,1.77626416015625,0.4618634782671928,0.10886908338395879,-0.1738873711362481
1728303246382324200,1.78632421875,0.7443459564179181,0.14609018607703037,-0.34210710843224074
1728303246392384000,1.796384033203125,-0.07180676058232784,0.20806624745605512,-0.15656159433666617
1728303246402444000,1.806444091796875,0.44783203030526636,0.24756438256986438,-0.0831954298173543
1728303246412504300,1.81650439453125,0.390772756999731,0.26075810106601566,-0.16192566038677467
1728303246422564000,1.826564208984375,-0.3752630531787872,0.03467758308956399,-0.15459405712336302
1728303246432624000,1.8366240234375,0.17414309946298598,0.15886223596185445,-0.24811615296741946
1728303246442684200,1.84668408203125,0.8330974220603704,0.18841975435763597,-0.24736359930075705
1728303246452744200,1.856744140625,-0.4599667047351598,0.07944057992901653,-0.04830512642571702
1728303246462804000,1.866803955078125,0.09783084415495395,-0.039750100580882276,-0.0954661334507633
1728303246472864000,1.876864013671875,0.25730302870869637,0.020669653000542892,-0.26259718959406014
1728303246482924000,1.886924072265625,-0.42507542409598825,-0.04015135659184307,-0.07547751238378696
1728303246492984000,1.896984130859375,0.41418695033490655,-0.07325591821102426,-0.03188243594570085
1728303246503043800,1.9070439453125,0.6131663848906755,0.010069394196849315,-0.1181581043254584
1728303246513104000,1.917103759765625,-0.3654956924021244,-0.16100774182425812,-0.07086593606825918
1728303246523164200,1.9271640625,0.13425649475455284,-0.15459182863365858,-0.033062731771450485
1728303246533224200,1.93722412109375,0.5288111083805561,-0.03050057139955461,-0.21990884360419585
1728303246543284000,1.947283935546875,-0.2134253085374832,-0.0726338042573072,-0.11393699776539579
1728303246553344000,1.957343994140625,0.1884673928916454,-0.2750367469883524,-0.041015809667762367
1728303246563404000,1.967404052734375,0.3401759577065706,-0.05240636946577579,-0.1591399934573099
1728303246573463800,1.9774638671875,-0.29683775123953815,-0.07670092583205551,-0.05338140677670017
1728303246583524000,1.987524169921875,0.2374807223856449,-0.16402171935057266,-0.0006534406737424433
1728303246593584000,1.997584228515625,0.5593167212814092,-0.0485999811864458,-0.18469386570230126
1728303246603644000,2.007643798828125,-0.3832546364545822,-0.14088562143757008,-0.06358586206268518
1728303246613704000,2.017703857421875,-0.2077349879413843,-0.056513877849839626,0.04444857886172831
1728303246623764000,2.027763916015625,0.2247059964865446,-0.1061621259802021,-0.02840221088081598
1728303246633824000,2.037823974609375,-0.2493582071840763,-0.12406026844079605,-0.01270556965302676
1728303246643884000,2.047884033203125,0.012050503277778625,-0.05270753523628227,-0.019358707399293778
1728303246653944000,2.057944091796875,0.06815875946879386,-0.15004829431935213,0.02539901047684252
1728303246664004000,2.068004150390625,-0.26568624165058136,-0.21855415932592004,0.03425787810645997
1728303246674064000,2.07806396484375,0.12007599371075629,-0.132316795396246,0.06428410999253392
1728303246684124000,2.0881240234375,0.277492414778471,-0.10464620499191805,0.020431195469014344
1728303246694184200,2.09818408203125,-0.23457681763768196,-0.2394760426550172,0.05647058669738471
1728303246704244000,2.108243896484375,-0.013137713992595671,-0.19021069289501755,0.07543260466298088
1728303246714304000,2.118303955078125,0.49800271314084527,-0.14711208560382946,-0.03814441894991323
1728303246724364000,2.128364013671875,-0.3208236069828272,-0.1574037442492321,-0.10716715657059103
1728303246734424000,2.138424072265625,0.22265607821941374,-0.25243010717639697,0.015859631503466518
1728303246744483800,2.14848388671875,0.7737409777283668,-0.07809139380976557,-0.18558504238836465
1728303246754544000,2.158544189453125,-0.3100748339533806,-0.16914903576904908,-0.16537439433485268
1728303246764604200,2.168604248046875,-0.18362638260126113,-0.3508661324165761,-0.10324156235838308
1728303246774664000,2.178663818359375,0.7964958303719758,-0.10696536865448579,-0.10092196030439808
1728303246784724000,2.188723876953125,-0.2024754599779844,-0.0975455609401688,-0.19025546361850573
1728303246794784000,2.198783935546875,0.02632043617069721,-0.24950751599427312,-0.07703596647270024
1728303246804843800,2.20884375,0.3875415199935436,-0.0912544614393264,-0.08302198207974433
1728303246814904000,2.218904052734375,-0.43407764571905133,-0.14635933100776746,-0.13327261655004694
1728303246824964000,2.228964111328125,-0.20735563323497772,-0.2221798024771735,-0.17239099509865044
1728303246835024100,2.239024169921875,0.9291331994920968,-0.08932106395764276,-0.11228276428496464
1728303246845084000,2.249083984375,0.0998591351121664,-0.15639115140689536,-0.17037844969984142
1728303246855144000,2.25914404296875,-0.5549439130246638,-0.29285912993215024,-0.06639182286150754
1728303246865204000,2.269203857421875,0.5418886166185141,-0.2498983784753829,-0.2133192908797413
1728303246875264000,2.279263916015625,-0.07384732649922371,-0.08895476966220885,-0.15853174363216385
1728303246885324000,2.289323974609375,-0.19713234538435934,-0.21363458564030005,-0.011874991447245702
1728303246895384000,2.299384033203125,0.7801233722418546,-0.22661628708727657,-0.14158596085980535
1728303246905443800,2.30944384765625,0.49687107876241204,-0.16067978851152584,-0.22508599051376804
1728303246915503900,2.31950390625,-0.49460021122097964,-0.14232472346313296,-0.09787345032081939
1728303246925564200,2.329564208984375,0.2616623929619789,-0.213729186854884,-0.01787315414980985
1728303246935624200,2.339624267578125,0.6526701277613639,-0.15781524765957147,-0.18842485065786166
1728303246945684000,2.34968408203125,-0.2551572488516569,-0.2878643721184693,-0.059244407925428816
1728303246955744000,2.359743896484375,0.3143476889669895,-0.24602670640749855,-0.1037015354197938
1728303246965804000,2.369803955078125,0.6924965267151594,-0.066361829582043,-0.057125360811688
1728303246975863800,2.37986376953125,-0.645834728783369,-0.19087295619603245,0.01440730467014946
1728303246985924000,2.389924072265625,0.2847632825642824,-0.21109597054077311,-0.030795316562429068
1728303246995984100,2.399984130859375,0.768238873180747,0.025214849548973142,-0.18028605919741092
1728303247006044000,2.4100439453125,-0.21754618785977362,-0.04127488072905689,-0.039943970052013174
1728303247016104000,2.42010400390625,-0.2088455795317888,-0.05081597673548385,-0.04487591916201636
1728303247026164000,2.4301640625,0.7702285856932402,0.1702328124177642,-0.15136512167211622
1728303247036224000,2.44022412109375,-0.12503507742285727,0.1069583361255005,-0.17435228523425758
1728303247046284000,2.450283935546875,-0.1462789409816265,0.1159953915999271,-0.1644396890343167
1728303247056344000,2.460343994140625,0.5749649567902088,0.319118081706576,-0.16804790612673387
1728303247066404000,2.470404052734375,-0.0956850642979145,0.3049510977314785,-0.2702163958935067
1728303247076463900,2.4804638671875,-0.4512082287400961,0.21658463108493015,-0.060416757906740524
1728303247086524000,2.49052392578125,0.7808844197422266,0.23939241949217394,-0.29772295484254135
1728303247096584200,2.500584228515625,0.10888123047947883,0.4931466879444196,-0.28499689039075743
1728303247106644000,2.51064404296875,-0.8183902667939662,0.31953195973709225,-0.09807766765602864
1728303247116704000,2.5207041015625,0.3434001804500818,0.3831885854810476,0.013407361246831714
1728303247126764000,2.530763916015625,0.27487843288779257,0.46568179444633423,-0.20521505927601827
1728303247136823800,2.54082373046875,-0.3133119161784649,0.4347363288234919,-0.09420763955595902
1728303247146883800,2.5508837890625,0.05376666150093078,0.4940267952471971,0.042882818249193946
1728303247156944100,2.560944091796875,0.3496265076190233,0.5098247414249927,-0.057076324905036016
1728303247167004200,2.571004150390625,-0.4661515308499336,0.44272111703231926,0.04325090264291502
1728303247177064000,2.58106396484375,0.06896539967656135,0.6045050856597721,0.17844675147365777
1728303247187124000,2.5911240234375,0.437246923404932,0.5040251152355224,-0.1703975014601834
1728303247197184000,2.60118408203125,-0.6393623178988694,0.529879577862285,0.11377966091237031
1728303247207244000,2.611244140625,0.12261574132144451,0.6378190339796245,0.18325267218435182
1728303247217304000,2.621303955078125,0.5734767640590668,0.6612199294418096,-0.11499232463776134
1728303247227364000,2.631364013671875,-0.45016310360133643,0.5557986301578581,-0.017225805290136485
1728303247237423900,2.641423828125,-0.07784253361523151,0.6623639849103987,0.08393735249214805
1728303247247484000,2.65148388671875,0.493475006583333,0.6543508473899216,-0.03619860037807375
1728303247257544000,2.6615439453125,-0.06331365752518177,0.6570235006652771,-0.08958751460779457
1728303247267604200,2.671604248046875,-0.0609071809053421,0.6405215709365903,-0.05155867572841234
1728303247277664000,2.6816640625,0.5611328307926654,0.6376772143561392,-0.022100197260314598
1728303247287724000,2.69172412109375,-0.07646423099935054,0.6222663677997887,-0.08319817889686673
1728303247297784000,2.7017841796875,-0.10654665005207062,0.66254810930565,-0.09823791798534802
1728303247307843800,2.71184375,0.7813982144832611,0.7549746101990342,-0.053394951244862744
1728303247317904000,2.72190380859375,-0.2576858905464411,0.700218353138864,-0.1391325672251638
1728303247327964200,2.731964111328125,-0.15968553504347802,0.5631145061291754,-0.14926040447782724
1728303247338024000,2.74202392578125,0.8392781565219163,0.7930446670047938,-0.1787905964752659
1728303247348084000,2.752083984375,-0.11555705498158932,0.8317133472908288,-0.12015795463947579
1728303247358144000,2.76214404296875,-0.22569676108956335,0.6184871415220201,-0.16467877675350753
1728303247368204000,2.7722041015625,0.567215365576744,0.7409029763571917,-0.02111173421223648
1728303247378264000,2.78226416015625,-0.09089432289004325,0.7087410476166754,-0.14288790117069147
1728303247388324000,2.792323974609375,-0.11679799495339394,0.7587344011239707,-0.038721058927243576
1728303247398384000,2.802384033203125,0.7769570171654224,0.744303943907097,-0.1536496158801019
1728303247408444000,2.81244384765625,-0.1467494811028242,0.793779118759185,-0.023789967845007774
1728303247418504000,2.82250390625,-0.40547757417857644,0.7037573409199714,0.10900518565271049
1728303247428564000,2.83256396484375,0.6929846024930477,0.7275036888189613,-0.057795131565723565
1728303247438624000,2.8426240234375,-0.1315168406575918,0.7197304244689643,-0.2360134080457501
1728303247448684000,2.85268408203125,-0.3802139535844326,0.7945364399325102,0.04099103141953237
1728303247458744000,2.862744140625,0.8777759372204542,0.8752041139710695,-0.040261639432748776
1728303247468804000,2.87280419921875,-0.12642974665164947,0.8787238855950534,-0.06511319949412718
1728303247478864000,2.88286376953125,-0.549447653695941,0.6909652254946529,0.06945563087891787
1728303247488924000,2.892923828125,0.5894371342569589,0.7955249395132065,-0.05314805467855185
1728303247498984200,2.902984130859375,-0.08691723595261573,0.8565084005251526,-0.13756907163495197
1728303247509044000,2.9130439453125,-0.46922553146779533,0.8492857557952403,0.008300347830867394
1728303247519104000,2.92310400390625,0.5481546912759542,0.9215349994480609,-0.03637094300398603
1728303247529164000,2.9331640625,0.035358898150920866,0.8747482599623501,-0.14034984319359065
1728303247539223800,2.943223876953125,-0.702797555977106,0.8447693012841045,-0.042641246311971914
1728303247549284000,2.9532841796875,0.26280747134387494,0.845991098164022,-0.1466123376544565
1728303247559344000,2.96334423828125,-0.10214286213517189,0.8926265926107764,-0.2896615212009288
1728303247569404000,2.97340380859375,-0.6646130790114403,0.9280020035050809,-0.010396178465802222
1728303247579464000,2.9834638671875,0.5405646745383739,0.8571157918337732,-0.1611971451828256
1728303247589524000,2.99352392578125,-0.09387830713689327,0.9225063286982477,-0.2834990165158175
1728303247599584000,3.003583984375,-0.8318670034825801,0.8404058453775942,-0.10210178120611235
1728303247609644000,3.01364404296875,0.29849603984057904,0.8811199869513511,-0.12260595057979225
1728303247619704000,3.0237041015625,0.49796881087124345,0.8826884783770889,-0.31326657919939604
1728303247629764000,3.03376416015625,-0.5765706384211778,0.8954239682443439,-0.1484836570848245
1728303247639824000,3.043823974609375,0.06252455297410488,0.9454429676495492,-0.061087186247901985
1728303247649884000,3.0538837890625,0.3698790220528841,0.8698335999138653,-0.26239669858589765
1728303247659944000,3.06394384765625,-0.6322416722387075,0.8232734357256442,-0.11639481184682808
1728303247670004000,3.07400390625,0.485375286757946,0.9110711808398365,-0.1148086660333909
1728303247680064000,3.08406396484375,0.6279629720062017,0.9427017791826278,-0.2909225723790005
1728303247690124000,3.0941240234375,-0.6882587430149316,0.7392093972470611,0.015331068451562896
1728303247700184000,3.10418408203125,0.08355272795557975,0.803077254588902,0.12084090453549287
1728303247710243800,3.114243896484375,0.5954354978889227,0.8999610271520913,-0.0950692796202842
1728303247720304000,3.12430419921875,-0.24300679233074188,0.7563739556029438,-0.15017215816103852
1728303247730364200,3.1343642578125,-0.06826338888704776,0.7325079268470406,0.060023876998480406
1728303247740424000,3.144423828125,0.6321715296119451,0.940860900556296,-0.015623731255205347
1728303247750484000,3.15448388671875,-0.5148159007757902,0.726879419440776,0.09256491385023109
1728303247760544000,3.1645439453125,0.24247195480167863,0.6665166476104408,0.05320433317674324
1728303247770603800,3.174603759765625,0.8722732481509446,0.8333551962137222,-0.08910843498711474
1728303247780664000,3.1846640625,-0.3272270442843437,0.7791165332868695,0.024325061102397738
1728303247790724000,3.19472412109375,0.03517535827755928,0.7395728967972099,0.180784802499786
1728303247800784100,3.2047841796875,0.4165893353015184,0.8679097191791981,0.013560711477906443
1728303247810844000,3.214843994140625,-0.2771253350317478,0.7447228269062935,0.050574254101212135
1728303247820904000,3.224904052734375,0.16621756716072558,0.739693527502194,0.08702999387839809
1728303247830964000,3.2349638671875,0.5081330620110035,0.9205936269447207,-0.0818952704716008
1728303247841024000,3.24502392578125,0.010595628294348717,0.6755993871238082,-0.04641602931006346
1728303247851084000,3.255083984375,-0.024722353324294087,0.7631773520074784,0.07540700899742078
1728303247861144000,3.26514404296875,0.4791150573194027,0.7570501012988388,-0.11459780889484099
1728303247871203800,3.275203857421875,-0.04655015425086021,0.6883405760794877,-0.08720187984658405
1728303247881263900,3.285263916015625,0.07495967165529728,0.6670981007602066,-0.02423134580380283
1728303247891324200,3.29532421875,0.5249310520768166,0.7449764363411814,-0.14894921050365081
1728303247901384200,3.30538427734375,-0.07420797650516033,0.6685992991033941,-0.10049164259573444
1728303247911444000,3.31544384765625,0.0908358707010746,0.7012374670535325,0.019250274022179655
1728303247921504000,3.32550390625,0.3949053267598152,0.8045398744873702,-0.28112083440870045
1728303247931564000,3.33556396484375,-0.12913549847900865,0.7533497124109417,-0.24451708729583768
1728303247941623800,3.345623779296875,0.1283715283691883,0.7936139913253486,-0.07353043343662284
1728303247951684000,3.35568408203125,0.4791179799288511,0.8140815367493778,-0.25000143699105826
1728303247961744100,3.365744140625,-0.25799685619175433,0.6249817642383277,-0.2958256698538549
1728303247971804000,3.375803955078125,0.04784311667084694,0.5719926629811525,-0.09985133539820089
1728303247981864000,3.385864013671875,0.4294084848642349,0.33895233419574794,-0.22612375432997942
1728303247991924000,3.395924072265625,-0.21553367899358272,-0.07587179979784414,-0.24988882519574834
1728303248001984000,3.40598388671875,-0.10883914490342139,-0.15602714040009305,-0.1376617914197035
1728303248012044000,3.4160439453125,0.3161468473434448,-0.24132366154938933,-0.26890933188293126
1728303248022104000,3.42610400390625,-0.2006850694298744,-0.16910466690436005,-0.32790125375147905
1728303248032164000,3.4361640625,0.05505377870202064,-0.05334240820687264,-0.1706947856400162
1728303248042223900,3.446223876953125,0.2575344993770122,-0.02514293509023264,-0.12973274285295047
1728303248052284000,3.456283935546875,-0.3989087171822786,-0.1750012506622821,-0.08862819545581005
1728303248062344200,3.46634423828125,0.038346389529109,-0.12040062255524098,-0.05706605923934839
1728303248072404000,3.476404052734375,0.39061493608951564,-0.09304167364966123,-0.13633408647989853
1728303248082464000,3.486464111328125,-0.38418928695619103,-0.2888433549521491,-0.1546453123865649
1728303248092524000,3.49652392578125,0.16619243271946907,-0.38766777672171593,-0.03619518001170363
1728303248102583800,3.506583740234375,0.3371002035230398,-0.24365153824137523,-0.06419456854555755
1728303248112643800,3.516643798828125,-0.36379298013746736,-0.3298696312149986,-0.10360570122934877
1728303248122704100,3.5267041015625,0.12612521074712277,-0.3285550049524754,-0.03332271158162039
1728303248132764200,3.53676416015625,0.41822658111453054,-0.1985182650511153,-0.12893915392300112
1728303248142824000,3.546823974609375,-0.3034633068591356,-0.3906768954098224,-0.07848252115235664
1728303248152884000,3.556884033203125,0.16640052251219747,-0.2740460919831879,0.03568064091857522
1728303248162944000,3.566944091796875,0.2573936296015978,-0.1307078623622656,-0.09198691303287632
1728303248173004000,3.577004150390625,-0.25749124475717544,-0.21744152190890162,-0.1351000694392249
1728303248183064000,3.58706396484375,0.18155191441476343,-0.3231170151496306,-0.029756707929424007
1728303248193124000,3.5971240234375,0.36098259889185424,-0.17744199487790463,-0.11126710270270705
1728303248203183900,3.607183837890625,-0.35831308742165563,-0.3092331954974681,-0.1224434900270775
1728303248213244000,3.617243896484375,0.1070703816652298,-0.2071328207971528,-0.020867997717391697
1728303248223304000,3.627303955078125,0.3038637043535709,-0.1738711141211912,-0.1475272605422884
1728303248233364200,3.6373642578125,-0.094007486474514,-0.2282071364752948,-0.12988253572033717
1728303248243424000,3.647424072265625,0.207521052929759,-0.13935252098562195,0.0018387049355544148
1728303248253484000,3.657484130859375,0.1517249314278364,-0.1285629775543697,-0.089689897270035
1728303248263544000,3.6675439453125,-0.30824060426354405,-0.25348664875831456,-0.05072872314371634
1728303248273603800,3.677603759765625,0.23047113588452336,-0.1824347251312807,-0.011668531922600232
1728303248283664000,3.687663818359375,0.19728315203189847,-0.16481555487569421,-0.07592953503418248
1728303248293724200,3.69772412109375,-0.15973521940410138,-0.2568433753076941,-0.03804654806600884
1728303248303784000,3.707783935546875,0.31687808422744274,-0.2222206276779063,0.02160566890875343
1728303248313844000,3.717843994140625,0.22023849568367004,-0.15116870405087246,-0.13284132159384898
1728303248323904000,3.727904052734375,-0.31948329828977584,-0.283174789530132,-0.08905715232444926
1728303248333964000,3.737964111328125,0.18570903409421444,-0.26470000709220765,0.10403885021591558
1728303248344024000,3.748024169921875,0.41542905935049057,-0.11174841994624585,-0.0979739241537638
1728303248354084000,3.758083984375,-0.33528117140233515,-0.27728889156300573,-0.028046437979396432
1728303248364144000,3.76814404296875,0.2828898899078369,-0.2157222421019338,0.052752296826615926
1728303248374204000,3.778203857421875,0.3113502607166767,-0.13022683737967164,-0.04814154249499552
1728303248384264000,3.788263916015625,-0.30408114649653434,-0.21173762944517657,0.07100222100010141
1728303248394324000,3.798323974609375,0.2071037043005228,-0.19213521295050157,0.17189711063448337
1728303248404384000,3.808384033203125,0.2500771691083908,-0.16900475019384176,-0.008617569687031208
1728303248414444000,3.818444091796875,-0.15257365721166133,-0.2465842854913324,0.056213830890762616
1728303248424504000,3.828504150390625,0.41082770303487776,-0.21747463872721418,0.005286361171398311
1728303248434564000,3.838564208984375,0.16724924829602242,-0.1776060080668889,-0.10497229514112695
1728303248444624000,3.848623779296875,-0.24392799882888794,-0.25013638848233966,0.05133349780356511
1728303248454684000,3.858683837890625,0.36302258028686046,-0.1303677436877042,0.0721687577285571
1728303248464744200,3.868744140625,0.02576923202872276,-0.18171490469044074,-0.06411663533798419
1728303248474804200,3.87880419921875,-0.1832522885918617,-0.2630049666773528,0.01652427627452416
1728303248484864000,3.888864013671875,0.4810083237200975,-0.1848055459158495,0.03961803059985395
1728303248494924000,3.898924072265625,0.09287643661797046,-0.19240511593306436,-0.1072861981066875
1728303248504984000,3.908984130859375,-0.029798925936222076,-0.19862990873204542,0.07022390270452014
1728303248515044000,3.919044189453125,0.2246142265498638,-0.11423601724458858,-0.10027709566275589
1728303248525103000,3.92910302734375,-0.07164192540943622,-0.1812063706464134,-0.11899539539981632
1728303248535163100,3.9391630859375,0.18919804525375364,-0.23249250391060486,-0.08785723848277703
1728303248545223000,3.949222900390625,0.29023031579852104,-0.18156289246650412,-0.21187501035556197
1728303248555283000,3.959282958984375,-0.07380933257639408,-0.23363451355258003,-0.05090281476872042
1728303248565343200,3.96934326171875,0.24599136109948158,-0.16444747048197314,-0.016422627689578802
1728303248575403000,3.979403076171875,0.2081529210925102,-0.15585835970444603,-0.21609337696926667
1728303248585463000,3.989463134765625,0.060933484390378,-0.22883555230563504,-0.11908441625698468
1728303248595523000,3.999523193359375,-0.03510696921646595,-0.1274299001375213,-0.12800946272430008
1728303248605582800,4.009582763671875,-0.02490998485088348,-0.21167212646091355,-0.1191632993126288
1728303248615643100,4.01964306640625,0.29773733042776585,-0.22512665131771936,-0.10128264684295281
1728303248625703200,4.029703125,0.08362813127934932,-0.11632281518969684,-0.15520902895024044
1728303248635763000,4.039762939453125,0.10430091695189475,-0.17345385682350023,-0.08796600522003135
1728303248645823000,4.049822998046875,0.057037645995616906,-0.05968247054913081,-0.09024280017875135
1728303248655883000,4.059883056640625,-0.14226327559947965,-0.1657694945996627,-0.11416855976525693
1728303248665943000,4.069943115234375,0.1808300298810005,-0.20373651115605607,-0.14396680071488954
1728303248676003000,4.080003173828125,-0.09088730862736702,-0.07657743644970469,-0.1695637540497817
1728303248686063000,4.09006298828125,0.07388765850961208,-0.15114006247827783,-0.1004559319615364
1728303248696123100,4.100123046875,-0.011230419066548347,-0.10879672140064649,-0.14476138515868223
1728303248706183000,4.110182861328125,-0.1439390998572111,-0.10978495611986144,-0.1297307061594911
1728303248716243000,4.120242919921875,0.24409400304555892,-0.10286473753578029,-0.22695118159744887
1728303248726303000,4.130302978515625,-0.15482114387750626,-0.15256312668449246,-0.12555945748998784
1728303248736363000,4.140363037109375,0.11469722328186034,-0.10542090655830688,-0.13626675686473025
1728303248746423000,4.150423095703125,-0.168098558601737,-0.11780252322028391,-0.13466923114075324
1728303248756483000,4.160483154296875,0.00025777415335178375,-0.14768804972772487,-0.10312772672036662
1728303248766543000,4.170543212890625,0.3489285884827375,-0.16155110971964895,-0.1493350040839985
1728303248776603000,4.180602783203125,0.034255320823192596,-0.1812191570627503,-0.05738624937073327
1728303248786663200,4.1906630859375,0.1716372541218996,-0.13042379385703243,-0.12563680617567152
1728303248796723200,4.20072314453125,-0.11924597262740134,-0.21708238800661636,-0.06870024593435227
1728303248806783000,4.210782958984375,0.023525252494215963,-0.07332529365280643,-0.03510973199571017
1728303248816843000,4.220843017578125,0.3920949455142021,-0.244960465415474,-0.136168246660009
1728303248826903000,4.230903076171875,0.12441256161034106,-0.16231412998139857,-0.01624468301500892
1728303248836962800,4.240962890625,0.003073416095972061,-0.3079197382787242,-0.21388081548633053
1728303248847023000,4.251023193359375,-0.09207681067287922,-0.17655827084593473,0.10305067029562778
1728303248857083100,4.261083251953125,0.1310509767115116,-0.1605222598622553,-0.09840642468635924
1728303248867143200,4.27114306640625,0.06044482409060001,-0.23701834730459376,-0.02973672687060898
1728303248877203000,4.281202880859375,-0.07704699932336807,-0.6599482290055603,-0.12659723957250826
1728303248887263000,4.291262939453125,-0.0031026421904563903,-0.8846111170027404,0.021888572936784475
1728303248897323000,4.301322998046875,0.1402788237839937,-0.5533544153435156,-0.033013004028343125
1728303248907383000,4.311383056640625,0.03555938915908336,-0.6974106753069907,-0.01055594245464308
1728303248917443000,4.321443115234375,-0.011847089660167693,-0.372109192257747,0.008760599453491159
1728303248927503000,4.331503173828125,0.07825812867879867,-0.2792202797506936,0.06220055431728251
1728303248937563000,4.34156298828125,0.20861761599481105,0.029222130695264786,-0.037112575701123564
1728303248947623000,4.351622802734375,-0.0417056368291378,-0.15722840594863519,0.010895403542078566
1728303248957683200,4.36168310546875,0.02730827816426754,-0.22955164641942827,0.031502483017672785
1728303248967743200,4.3717431640625,0.23099837462902068,-0.32179497276563196,-0.026785160755750256
1728303248977803000,4.381802978515625,0.046374797683954236,-0.5321599804170429,-0.047370243028667755
1728303248987863000,4.391863037109375,0.15234510915279387,-0.6160089879054576,-0.07632053451261017
1728303248997923000,4.401923095703125,-0.13958032012581825,-0.7513583924632519,0.05664403443499468
1728303249007982800,4.41198291015625,0.0904261208564043,-0.9544449700769037,-0.03648381509419996
1728303249018043100,4.422043212890625,0.26835750668644903,-0.715552408131957,0.03906178039000369
1728303249028103200,4.432103271484375,0.07847966247498989,-0.4456364199571311,0.04369937706277705
1728303249038163000,4.442162841796875,0.12308277431130409,-0.44571408830322323,0.07366679143370129
1728303249048223000,4.452222900390625,-0.08864625170230865,-0.4633722753949463,-0.040410729047236964
1728303249058283000,4.462282958984375,0.2333890691578388,-0.6710950614418834,0.02499058950615581
1728303249068343000,4.472343017578125,0.17160042924284935,-0.7233572366639971,-0.23108839100003242
1728303249078403000,4.482403076171875,0.14392857846319673,-1.0382285111136733,-0.07115365783530286
1728303249088463000,4.492463134765625,0.16503391033411025,-1.2388107046909629,-0.17771038175681605
1728303249098523100,4.502523193359375,0.36451194206178184,-1.2933667630039154,-0.03854231396000832
1728303249108583000,4.5125830078125,0.28162440001666544,-1.3760681348271666,-0.23450251029245553
1728303249118643000,4.522642822265625,-0.004317278677225113,-1.6625738771446048,0.13999960498381406
1728303249128703200,4.532703125,0.13769582155346868,-1.3303909640185534,-0.1365713749676477
1728303249138763000,4.542762939453125,0.3454126893162727,-1.3365557702586055,0.07338715707499067
1728303249148823000,4.552822998046875,0.12695230922102926,-1.4193212933592498,-0.2964707445580512
1728303249158883000,4.562883056640625,0.00036766426861286163,-1.32405650030002,-0.1327769419875927
1728303249168942800,4.57294287109375,0.3632423605173826,-1.0430355460692196,-0.3138189523851499
1728303249179003000,4.5830029296875,0.02192541608214378,-1.5450995903648435,-0.031074549062340518
1728303249189063200,4.593063232421875,0.3396124786049127,-1.8083936761818824,-0.29274534909306094
1728303249199123200,4.603123291015625,0.1356651925086975,-1.6497842459373175,-0.019425224163709207
1728303249209183000,4.613182861328125,0.0014443535894155502,-1.5130397337593138,-0.01317027368848212
1728303249219243000,4.623242919921875,-0.08832418014109134,-1.844993806565553,0.07447414402752182
1728303249229303000,4.633302978515625,0.19216566288769243,-1.5544591009929776,0.386331084757857
1728303249239363000,4.643363037109375,0.8161942180544137,-1.0710696542900056,2.087624751321226
1728303249249423000,4.653423095703125,-0.7808850042641162,-1.122484711163491,-2.666855987253785
1728303249259483100,4.663483154296875,-0.3481330541908741,-1.3321835465237497,0.26173162227328867
1728303249269543000,4.67354296875,0.1398351716697216,-1.2146755766700952,-0.014096711200883145
1728303249279603000,4.68360302734375,-0.012496493479609488,-1.3677638323403893,-0.11642125232918188
1728303249289663000,4.6936630859375,-0.06367489205300808,-1.5353665702491999,-0.04137532259596046
1728303249299723300,4.70372314453125,-0.20030162307024002,-1.614132940711081,-0.05364110802565701
1728303249309783000,4.713782958984375,-0.043488428592681885,-1.7948047112904488,0.16524665803564711
1728303249319843000,4.723843017578125,-0.07865911069512367,-1.6144988514140248,0.04540649150791578
1728303249329903000,4.733903076171875,-0.13612930288910866,-1.1825206621922553,0.23808464309554545
1728303249339963000,4.743962890625,-0.05982523088753223,-0.864438462872058,0.03054482609981205
1728303249350023000,4.75402294921875,-0.1280710841178894,-0.9300426424872129,0.17752278676284475
1728303249360083200,4.764083251953125,0.18675299018919467,-0.8721913420211523,-0.12415266856513917
1728303249370143000,4.77414306640625,0.09994856696128844,-0.9502153696831315,0.018887614722247235
1728303249380203000,4.784203125,0.09933131184577941,-1.1135375076632945,-0.18574224224407224
1728303249390263000,4.794262939453125,0.0352659591704607,-1.6178972616806626,-0.09850968413143418
1728303249400323000,4.804322998046875,0.249379249972105,-1.7017013340488074,-0.2918485646501183
1728303249410383000,4.814383056640625,0.11364157674908637,-1.4827506862185895,-0.1574935048919171
1728303249420443100,4.824443115234375,0.29199264929592605,-1.226214550229162,-0.0691754074317403
1728303249430503200,4.834503173828125,0.08951192862093447,-1.083216749810055,-0.10447188960462808
1728303249440563000,4.84456298828125,0.30063246734738347,-0.9946328958194702,-0.026245649334858172
1728303249450623000,4.854623046875,0.5187824663192033,-0.7314848674096167,-0.21701286643436177
1728303249460683000,4.86468310546875,0.4140133473336696,-0.8501186994880437,-0.08677772701722569
1728303249470743000,4.874742919921875,0.350087695389986,-1.0717694731224328,-0.39220136503074315
1728303249480802800,4.884802734375,0.3095037560671568,-1.5840493526145816,-0.16685034863892942
1728303249490862800,4.89486279296875,0.3476274427562952,-1.7091705008856952,-0.4023239324532449
1728303249500923000,4.9049228515625,0.29058979676067825,-1.761229335555434,-0.20193137969654051
1728303249510983000,4.91498291015625,0.5835515833497047,-1.4455731943383812,-0.3111570031668991
1728303249521043000,4.92504296875,0.3559288226336241,-1.4774325599357485,0.029106367961643263
1728303249531103000,4.93510302734375,0.2770475936204195,-1.2183497351381927,-0.16648695868663488
1728303249541163000,4.9451630859375,0.13263093937933443,-1.0560048446923493,0.01797074190592393
1728303249551222800,4.955222900390625,0.25261574767529965,-0.7782718991562724,-0.23451867597596718
1728303249561282800,4.96528271484375,0.31393969268798827,-1.1476927291128785,-0.15946838516145945
1728303249571342800,4.9753427734375,0.3745084354192018,-1.6290828186921775,-0.31874570473022756
1728303249581403000,4.98540283203125,0.2852916903525591,-1.926801006028056,-0.2885722463931888
1728303249591463000,4.995462890625,0.16808920625150203,-1.8586143356390297,-0.3561632524440065
1728303249601523000,5.00552294921875,-0.03425882795453072,-1.9644466999419032,-0.2586232079291716
1728303249611583000,5.0155830078125,0.182380766454339,-1.7685257761739193,-0.26009846811350434
1728303249621642800,5.025642822265625,0.08702420345842837,-1.3999112210988998,-0.1493376435656566
1728303249631702800,5.035702880859375,0.08114800490140914,-0.8439633917286992,-0.14861532977363093
1728303249641763000,5.04576318359375,-0.1443967804968357,-0.862472350430861,-0.05711868447572924
1728303249651822800,5.05582275390625,0.015213351222872732,-1.0670195751816034,-0.18744144737739116
1728303249661883000,5.0658828125,-0.15018880790174008,-1.2294849502019582,-0.24117639856580644
1728303249671943000,5.07594287109375,0.08527706753015518,-1.3761186959706246,-0.40183293406590814
1728303249682002700,5.086002685546875,-0.26973347121477126,-1.9928250915557144,-0.15007950230836867
1728303249692063000,5.09606298828125,-0.2059095260798931,-2.123710064050555,-0.2348106629261747
1728303249702123000,5.106123046875,-0.00680091218650341,-1.8717561412848531,-0.26069603214785453
1728303249712182800,5.116182861328125,-0.2847334719479084,-1.1670349237687885,-0.31180490914899855
1728303249722242800,5.126242919921875,-0.31875732210278507,-1.204461348908767,-0.06708591520604677
1728303249732302800,5.136302734375,-0.43014732053279875,-0.7909321318302303,-0.23623839417435227
1728303249742363000,5.14636279296875,-0.20650106223225592,-0.6976549323916434,-0.1371743732289411
1728303249752423000,5.1564228515625,0.013251695761084556,-0.6233912071112543,-0.2691645852856338
1728303249762483000,5.16648291015625,-0.17999591714441776,-1.217391265369579,-0.19197076137010008
1728303249772543000,5.17654296875,-0.2255675817519426,-1.8030578681118785,-0.5214163584867492
1728303249782602800,5.186602783203125,-0.3860691093534231,-2.0792161116771397,-0.06498099708235822
1728303249792662800,5.196662841796875,-0.06878419789075851,-1.7910798455484211,-0.3400905444454402
1728303249802722800,5.206722900390625,-0.006932429611682891,-1.9756481851749121,-0.10526141428081318
1728303249812782800,5.216782958984375,-0.07302665776610374,-1.6352536162815987,-0.18970469786794855
1728303249822843000,5.2268427734375,0.08758183734118938,-1.11611722195819,0.1348916143203154
1728303249832903000,5.23690283203125,0.02043722335100174,-0.6137556560207158,-0.16155563976429402
1728303249842963000,5.246962890625,0.0034101007044315336,-0.960713528952375,0.15783596165403724
1728303249853022700,5.257022705078125,0.35237843667566776,-0.9352421838916838,-0.15898151495996862
1728303249863083000,5.2670830078125,0.5291144752413034,-1.2663273649089037,-0.03153374123903922
1728303249873143000,5.27714306640625,0.3393739936739206,-1.7513577837519347,-0.22535430432744322
1728303249883202800,5.287202880859375,0.4465092572689056,-2.4217568988189098,-0.0326064393713139
1728303249893262800,5.297262939453125,0.36973581418991086,-2.326400481953472,-0.21512120746886357
1728303249903323000,5.307322998046875,0.4788198737651109,-2.0608125861108304,0.06065216496465727
1728303249913382700,5.317382568359375,0.38379824181199074,-1.5494913955830036,-0.20964261166099457
1728303249923443000,5.32744287109375,0.27517478548586366,-1.2429866752013563,-0.02918329652221873
1728303249933503000,5.3375029296875,0.2869990787923336,-0.6943640010874718,-0.1391654922472313
1728303249943563000,5.34756298828125,0.5283768086165189,-0.5453125266525894,-0.18280474575376138
1728303249953622800,5.357622802734375,0.5547159494876861,-0.7866244246989488,-0.4270956413445994
1728303249963682800,5.367682861328125,0.475994294950366,-1.5352088954694567,-0.34077399666495617
1728303249973742800,5.377742919921875,0.44500411340296264,-2.0752993766248227,-0.5751506155554205
1728303249983803000,5.387802978515625,0.5284826070785522,-2.5030077795729038,-0.5781904947079718
1728303249993863000,5.39786279296875,0.21229367415904998,-2.4976433299303054,-0.4900718470763415
1728303250003923000,5.4079228515625,0.7026631159424781,-2.409712386890501,-0.44221802634838964
1728303250013982700,5.417982666015625,0.14048632905483244,-1.770917639746517,-0.5107974589146673
1728303250024042800,5.428042724609375,0.032196050205826755,-0.984614482891187,-0.31787063892874867
1728303250034103000,5.43810302734375,0.2520668816208839,-0.30178298908937723,-0.5588253210352734
1728303250044163000,5.4481630859375,0.669762716859579,-0.7398085321839898,-0.5442464683236554
1728303250054222800,5.458222900390625,0.12468202620148658,-1.0047207937873899,-0.6524384378973395
1728303250064283000,5.468282958984375,0.48654959123432634,-1.3317536306738853,-0.5632569833397865
1728303250074343000,5.478343017578125,0.29057576823532577,-1.9709993364557623,-0.8116326822925358
1728303250084402700,5.488402587890625,0.40151977646350856,-2.881456477050483,-0.6835942583352327
1728303250094463000,5.498462890625,0.1425713186353445,-2.819793509341776,-0.6218494575619697
1728303250104523000,5.50852294921875,0.40647184591293334,-2.100222220957279,-0.48709454829860477
1728303250114582800,5.518582763671875,-0.2166582991093397,-1.2765000916160643,-0.4877206808403134
1728303250124642800,5.528642822265625,-0.0948702407836914,-0.8880527818892151,-0.4553779521727934
1728303250134702800,5.538702880859375,0.2820750663936138,-0.4079053127821535,-0.3914208821775391
1728303250144763000,5.548762939453125,0.5617722977399826,-0.322228541877307,-0.4328698408318683
1728303250154823000,5.558822998046875,0.1360702661782503,-0.9482263147577643,-0.5746884048711508
1728303250164883000,5.568883056640625,0.4161901068508625,-1.6867349433243273,-0.7832682461388408
1728303250174943000,5.57894287109375,0.08635843302607536,-2.4028275958128273,-0.5374081467362121
1728303250185002800,5.589002685546875,0.2480816113770008,-2.283145277594775,-0.4346955584216863
1728303250195062800,5.599062744140625,-0.021914894688129422,-2.4928102106854317,-0.3079248163126409
1728303250205123000,5.609123046875,0.039081718066334724,-2.262148228403926,-0.1303646566814743
1728303250215182800,5.619182861328125,-0.14067103797197342,-1.5387316627681253,-0.00033739699451252816
1728303250225243000,5.629242919921875,0.02002104376554489,-0.4368702355796471,-0.050913263097498565
1728303250235303000,5.639302978515625,-0.37581484184265135,-0.6921747474148869,-0.051488578767422584
1728303250245363000,5.649363037109375,-0.11639584389328955,-0.8178650738760829,-0.15396248122155665
1728303250255422700,5.659422607421875,0.14302490762174128,-1.0623129318606108,-0.32853133181594313
1728303250265483000,5.66948291015625,0.43715749155580996,-1.456973270883411,-0.5348986481333151
1728303250275543000,5.67954296875,-0.3346352747142315,-2.4868369814947244,-0.6179876675672829
1728303250285602800,5.689602783203125,-0.19752865122556684,-2.2800096099175513,-0.41573191475458443
1728303250295662800,5.699662841796875,0.0031739538609981536,-2.169136182707548,-0.5229275667672977
1728303250305723000,5.709722900390625,-0.16259002431333064,-1.849014440383762,-0.4529582872778177
1728303250315783000,5.719782958984375,-0.6255284383356571,-1.1598488116569816,-0.3576640123957768
1728303250325843000,5.729843017578125,-0.237180278134346,-0.6582594722010194,-0.2822977327009663
1728303250335903000,5.739903076171875,-0.18895839127898215,-0.8254538485046475,-0.2160615387925878
1728303250345962800,5.749962646484375,-0.12324877852797507,-0.702186511406675,-0.5631514040734619
1728303250356022800,5.760022705078125,-0.3099813104510307,-0.9336232043877244,-0.4273897654529661
1728303250366082800,5.770082763671875,0.0734030898630619,-1.8735183286517858,-0.8032955004494636
1728303250376143000,5.78014306640625,-0.04074000666737556,-2.1852266090258956,-0.6167777072556316
1728303250386203000,5.790202880859375,0.1107166292130947,-1.7190065429843961,-0.7610400477178394
1728303250396263000,5.800262939453125,-0.21020283935964107,-2.0073069136336446,-0.8434768503207712
1728303250406323000,5.810322998046875,-0.10794833354353904,-1.7237509610325097,-0.811694057090953
1728303250416382700,5.8203828125,-0.28670506428182124,-1.2362059290200471,-0.5568366679687052
1728303250426442800,5.83044287109375,0.2357552137672901,-0.4925780577436089,-0.48232707816846665
1728303250436503000,5.8405029296875,-0.10234569123089313,-1.0268559070974588,-0.5356296292889863
1728303250446562800,5.850562744140625,0.19368249719142913,-1.127655610995367,-0.4397263191305101
1728303250456622800,5.860622802734375,0.1292249303281307,-1.5222526755236088,-0.5688545841511339
1728303250466683000,5.870682861328125,0.48314533574879165,-1.8472976995937525,-0.6110383964186534
1728303250476742100,5.8807421875,0.05831424180269241,-2.058058026705682,-0.7619565049756318
1728303250486802400,5.890802490234375,0.23187223485410213,-1.941947867885977,-0.674645520465076
1728303250496862200,5.9008623046875,0.2839326769590378,-1.7962892507597803,-0.8014412508849054
1728303250506922200,5.910922119140625,0.10973112530708312,-1.4206176167801021,-0.6580207680743188
1728303250516982300,5.920982177734375,-0.016911387312412263,-1.0461816620752216,-0.5591225869487971
1728303250527042000,5.9310419921875,0.30807927622199055,-1.0613424063280223,-0.5340852859238162
1728303250537102300,5.941102294921875,-0.04317220225036144,-1.4106651086948812,-0.600011756295897
1728303250547162400,5.951162353515625,0.21563713936805723,-1.46267747387439,-0.45359048423413184
1728303250557222400,5.961222412109375,0.22183774757385252,-1.4326336332663894,-0.5164968030674383
1728303250567282200,5.9712822265625,0.1787912175297737,-1.7496270144365726,-0.7103793163429946
1728303250577342200,5.98134228515625,-0.07422434311807155,-1.688610089546442,-0.7568686072520912
1728303250587402200,5.99140234375,0.11758943759202957,-1.5405764138519764,-0.6493937364391982
1728303250597462300,6.001462158203125,0.11936579961478709,-1.536890126554668,-0.8626807324845344
1728303250607522300,6.011522216796875,0.16986965992748737,-1.6901546886399388,-0.6719603730343282
1728303250617582300,6.021582275390625,0.31883330994844433,-1.668526940330118,-0.6135097915008664
1728303250627642000,6.03164208984375,0.547131193447113,-1.5015886576794086,-0.6162203656338154
1728303250637702100,6.0417021484375,0.29628946970701214,-1.4393603111729025,-0.6338729997675866
1728303250647762200,6.05176220703125,0.4062795382112264,-1.4839128618657589,-0.5709998890841379
1728303250657822500,6.061822509765625,0.3682786011189222,-1.3697697653353214,-0.9379446477834135
1728303250667882200,6.07188232421875,0.3545511045396328,-1.422889653365314,-0.8604295194916427
1728303250677942300,6.0819423828125,0.01053834514915943,-1.3104915008060634,-1.1758528748661279
1728303250688002300,6.092002197265625,0.09851765737533569,-1.257073652742803,-1.3980673467978835
1728303250698062000,6.10206201171875,0.10424129571914673,-0.92232695354335,-1.4048663592882453
1728303250708122400,6.112122314453125,-0.12307692909240722,-0.9744901253703981,-1.5421039156801997
1728303250718182400,6.122182373046875,-0.23456454267799853,-0.8390845336459577,-1.4334613162621854
1728303250728242200,6.1322421875,-0.48035599729120726,-0.6998094800770283,-1.5234094443432986
1728303250738302200,6.14230224609375,-0.18788754717707634,-0.6827930249549448,-1.434283884691447
1728303250748362200,6.1523623046875,-0.6134691672295332,-0.6225519067429006,-1.3313470956996083
1728303250758422000,6.162422119140625,-0.45319034246802326,-0.7038106785424053,-1.6666880344651638
1728303250768482300,6.172482421875,-0.07698562452495097,-0.5106948753230274,-1.5423777641855179
1728303250778542300,6.182542236328125,-0.0757119513273239,-0.5366303307641297,-1.7053469970747828
1728303250788602400,6.192602294921875,-0.39765667129456994,-0.5147540145207197,-1.7129978040888905
1728303250798662100,6.202662109375,0.061380059114098544,-0.2891775918751955,-1.3760934153988957
1728303250808722200,6.21272216796875,-0.39029695618152616,-0.2620032057562843,-1.2172631820105015
1728303250818782200,6.2227822265625,-0.12023790627419947,-0.3829359258942306,-1.110130841024965
1728303250828842200,6.23284228515625,-0.23337679419815538,-0.29753358801659197,-1.0132046175595373
1728303250838902300,6.24290234375,-0.0321112945318222,-0.34454646440837533,-0.9377209950953721
1728303250848962300,6.25296240234375,-0.09692951140105724,-0.47166061312761154,-0.6709384826406836
1728303250859022000,6.26302197265625,0.11986147417724131,-0.5852317184563726,-0.6587537585239857
1728303250869082000,6.27308203125,0.21405133148133754,-0.5794489338038489,-0.7160559006746858
1728303250879142400,6.283142333984375,0.5340624530375003,-0.6847060920346528,-0.6379354269009083
1728303250889202400,6.293202392578125,0.5037421335756779,-0.8517978847466409,-0.6774412886634469
1728303250899262200,6.30326220703125,1.0802443829357624,-0.7827825084485113,-0.7592218193147331
1728303250909322200,6.313322265625,1.0354489633977413,-0.9275271525349468,-0.9100637573629617
1728303250919382300,6.32338232421875,1.143586097511649,-0.8311234916388988,-0.8488027945838869
1728303250929442000,6.333442138671875,0.8668179053544998,-0.846125245937705,-0.6753904936134815
1728303250939502300,6.34350244140625,1.0575117421239615,-0.9997839219070971,-0.9971034506514668
1728303250949562400,6.353562255859375,0.8438397653490305,-1.0416593623451889,-0.7951784641630947
1728303250959622100,6.3636220703125,0.795171303769946,-1.074257271350175,-0.9291799612432717
1728303250969682200,6.37368212890625,0.5342588523924351,-1.22318278131783,-0.8389892565779388
1728303250979742200,6.3837421875,0.581838934212923,-1.13185569303371,-0.9434805815353989
1728303250989802200,6.39380224609375,0.5021890589147806,-1.1701185689978302,-0.7500814313299954
1728303250999862300,6.4038623046875,0.43222704941630363,-1.0176263064593076,-1.1393092969752847
1728303251009922300,6.41392236328125,-0.16598901910185812,-1.1445511431515216,-0.8687342603698373
1728303251019982300,6.423982421875,-0.01624210974872112,-1.1508471745558082,-1.0608226202376185
1728303251030042000,6.4340419921875,0.1177753155529499,-1.0430125305198132,-1.0151287905551492
1728303251040102100,6.44410205078125,-0.007721534162759781,-1.0778742928035556,-1.0586236488886176
1728303251050162400,6.454162353515625,0.03196516405940056,-1.0925796945042907,-1.102151386578381
1728303251060222200,6.46422216796875,-0.18739011904895306,-0.9326961526706814,-1.1308490732744336
1728303251070282200,6.4742822265625,-0.005664017111063003,-0.8581336636394262,-1.1701916342340408
1728303251080342300,6.48434228515625,0.09730418993234634,-0.9768442872811108,-1.4561315593622624
1728303251090402300,6.49440234375,0.005464695146679878,-0.7680268378652632,-1.402948981359601
1728303251100462000,6.504462158203125,0.0953711760431528,-0.9942261416494845,-1.6620771796688436
1728303251110522400,6.5145224609375,0.10943418818712233,-0.5196155196098611,-1.4656073898464441
1728303251120582400,6.52458251953125,0.15421850180923938,-0.6063483754388987,-1.5877283333882688
1728303251130642200,6.53464208984375,0.191565943428874,-0.27263821621295065,-1.9468971608564256
1728303251140702200,6.5447021484375,0.029576807618141174,-0.555815252499096,-1.5799799112185835
1728303251150762200,6.55476220703125,-0.03629121056497097,-0.5558551461180672,-2.043900614276528
1728303251160822300,6.564822265625,-0.016893267133831977,-0.3962151672493666,-1.645638378304243
1728303251170882300,6.57488232421875,-0.3326940775185823,-0.31220662181768566,-1.7571752378590404
1728303251180942300,6.5849423828125,-0.0845440770804882,-0.35926848845034837,-1.737277089820802
1728303251191002400,6.59500244140625,-0.12341302917897701,-0.3123323670892045,-1.3531374872252344
1728303251201062100,6.605062255859375,-0.16616671375632286,-0.38658253876827653,-1.7659616247743366
1728303251211122200,6.6151220703125,-0.28748364743888377,-0.3024611806118861,-1.727379672923684
1728303251221182500,6.625182373046875,-0.17116729852259158,-0.3268360356727615,-1.4638231367781758
1728303251231242200,6.6352421875,-0.09195464559793472,-0.2748375163555145,-1.383492878000438
1728303251241302300,6.64530224609375,-0.2826858917683363,0.01996317609846592,-1.593883495017141
1728303251251362300,6.6553623046875,-0.5906237136930227,-0.1161571032339707,-1.6164309885203838
1728303251261422000,6.665422119140625,-0.6476075836747884,-0.14037231075372547,-2.0802561222493647
1728303251271482000,6.675482177734375,-0.6647019263386726,0.032068697499111294,-1.6469250571139156
1728303251281542400,6.68554248046875,-0.8629863643676042,0.23209336679149417,-1.7643381152257323
1728303251291602200,6.695602294921875,-0.3792068223685026,-0.10705949494503438,-2.096408654018491
1728303251301662200,6.705662109375,-0.7790478519648313,-0.2690871726678684,-2.2320754539623855
1728303251311722200,6.71572216796875,-0.6212491535812616,-0.34372590527310964,-2.1806126854896544
1728303251321782300,6.7257822265625,0.1404407363474369,-0.120144163576141,-2.028153010046482
1728303251331842300,6.73584228515625,-0.18430033634006976,0.027834895854257045,-2.0863431870780884
1728303251341902300,6.74590234375,-0.32593174377679823,-0.4225490839561447,-1.7455353612087665
1728303251351962400,6.75596240234375,-0.1797369739472866,-0.19399375509768724,-1.7630090585790574
1728303251362022100,6.766022216796875,0.32710137207806106,-0.5439495312036946,-1.7491520904012023
1728303251372082200,6.776082275390625,0.3900169701963663,-0.5189891678724438,-1.918740156908333
1728303251382142200,6.78614208984375,0.15185703337490558,-0.34098252484910185,-1.7614407863490282
1728303251392202200,6.7962021484375,0.5118102892190217,-0.29394546386413273,-1.407460029043257
1728303251402262300,6.80626220703125,0.10638356844484806,-0.4104035228060558,-1.808376871177554
1728303251412322300,6.816322265625,0.2622895849496126,-0.6022270942578092,-1.828053485419601
1728303251422382300,6.82638232421875,0.32677111721038815,-0.2851184161448851,-1.6865318219676613
1728303251432442000,6.836442138671875,0.23897242224812507,-0.36813893691990524,-1.6970356803253293
1728303251442502100,6.846502197265625,0.030714287215471266,-0.5251600750597194,-1.858864364877343
1728303251452562400,6.8565625,0.1447059925764799,-0.29680717343818397,-2.2308080643750725
1728303251462622200,6.866622314453125,0.09971300463974475,-0.5739131096497178,-1.657147322051227
1728303251472682200,6.87668212890625,-0.06040332303643226,-0.23240462469775228,-1.9303119367584585
1728303251482743000,6.886742919921875,0.09468260925710201,-0.17694387263003736,-1.663530154956132
1728303251492803000,6.896802978515625,0.13815993193387985,-0.15243191065341233,-2.0544506498634814
1728303251502863000,6.906863037109375,0.11346037496328354,-0.47619299586024133,-1.8769316442266106
1728303251512923100,6.916923095703125,0.11136954016387463,-0.3317549335049465,-1.8801640502765773
1728303251522983200,6.926983154296875,0.22305121501684189,0.08851977577842772,-1.8739761554218828
1728303251533043200,6.937043212890625,0.35284254705607887,-0.20703312328234313,-1.7733057039268314
1728303251543103200,6.947103271484375,0.3855722657471895,0.012287599969282746,-2.063177853937447
1728303251553163000,6.9571630859375,0.2153904711306095,0.014912358982302247,-1.782207241654396
1728303251563223000,6.96722314453125,0.1549965004444122,0.44250378448721017,-1.947276077171415
1728303251573283000,6.977282958984375,0.12001169630289077,-0.08499941963255404,-2.096238265887648
1728303251583343000,6.987343017578125,0.18647534229159354,-0.1882066961288452,-2.0877013236887754
1728303251593403100,6.997403076171875,0.4974573542177677,0.33010351303610946,-2.2200392714709043
1728303251603463200,7.007463134765625,0.8550544023245572,0.21967351874466984,-2.1699007373392583
1728303251613523200,7.017523193359375,0.9134095606595277,0.2095841229394078,-2.3952634441688656
1728303251623583000,7.0275830078125,0.6929682358801365,0.005217113593779504,-2.0543859140641985
1728303251633643300,7.037643310546875,0.702745533528924,0.2912428538419306,-2.388448211196065
1728303251643703300,7.047703369140625,0.8119073345154524,0.43811475574802605,-2.2247252373300492
1728303251653763000,7.05776318359375,0.686771719327569,0.02509907768219709,-2.4723104434922334
1728303251663823000,7.067822998046875,0.457359152585268,0.1731826204003766,-2.602485221891105
1728303251673883100,7.077883056640625,0.6654179656535386,0.13712284397110341,-2.66061738512516
1728303251683943000,7.08794287109375,1.078462175694108,0.3708481228133663,-2.7692124921396375
1728303251694003200,7.098003173828125,0.8585422444403171,0.09234799229707569,-2.7339295818343756
1728303251704063200,7.108063232421875,0.4919511580169201,0.2692586202446371,-2.6675132821187377
1728303251714123000,7.118123046875,0.384940982106328,0.2085126212503761,-2.7733056066721677
1728303251724183000,7.12818310546875,0.5496645113170147,0.029039120544865727,-2.5678815260216594
1728303251734243000,7.1382431640625,0.5720148748129605,0.03628953006453812,-2.532885323703289
1728303251744303000,7.14830322265625,0.6201081668525934,0.3926862624708563,-2.7232757936120033
1728303251754363100,7.158363037109375,0.2847404862105846,0.26363661564439533,-2.558495273517072
1728303251764423200,7.168423095703125,0.3034451866805553,-0.020577033680491148,-2.6554841138899326
1728303251774483200,7.178483154296875,-0.05336860209405422,0.16767456103600561,-2.502607089817524
1728303251784543000,7.18854296875,0.0882563756018877,0.5511288482485339,-2.4688567959070205
1728303251794603000,7.19860302734375,-0.2250064407378435,-0.0017236819874495268,-2.270984445810318
1728303251804663300,7.208663330078125,-0.13920213446319102,0.05110438348911702,-2.6980791007742284
1728303251814723000,7.21872314453125,0.10719371578395366,0.3492315534846857,-1.9845225426346063
1728303251824783000,7.228783203125,-0.13181845395267008,0.3239170064209029,-2.5141768238410354
1728303251834843100,7.238843017578125,-0.2905488802284002,0.23202742541581392,-2.4570415626898408
1728303251844903200,7.248903076171875,-0.1385229200273752,0.0679517656546086,-2.342643906876445
1728303251854963000,7.258962890625,-0.05388941109776497,0.5625949757670984,-2.6440464818134903
1728303251865023200,7.269023193359375,-0.10243336951434612,0.1584839041687548,-2.791822675615549
1728303251875083300,7.279083251953125,0.1983463973492384,0.20939269202053545,-2.395001870623231
1728303251885143000,7.28914306640625,0.025011107137799263,0.4613459937317297,-2.8402158273845908
1728303251895203000,7.299203125,0.4259948770284652,0.244526549243927,-2.4094728790462017
1728303251905263000,7.30926318359375,-0.2904115175843239,0.9293954306248575,-2.4814789615929125
1728303251915323100,7.3193232421875,-0.37297874163389205,0.4827325902294367,-2.8387971927583218
1728303251925383200,7.329383056640625,-0.2299211007863283,0.1722126063244417,-2.8774247373163697
1728303251935443200,7.339443115234375,-0.7619166844218969,0.760449680609256,-2.532670804169774
1728303251945503200,7.349503173828125,-0.3463496779054403,0.7273914606161415,-3.1434049934774637
1728303251955563000,7.35956298828125,-0.25527649131715296,0.36507564035914836,-3.068859455581009
1728303251965623000,7.369623046875,-0.40549978601038456,0.4615412605755031,-2.8408003492742777
1728303251975683300,7.379683349609375,-0.11974223171174525,0.8742489321380853,-2.9533836491420864
1728303251985743000,7.3897431640625,-0.008411854514479636,0.6655594930160791,-2.919572272694111
1728303251995803100,7.39980322265625,-0.2737450449436903,0.511543856835179,-2.86225201036483
1728303252005863200,7.40986328125,-0.17471008569598198,0.8012902250416576,-2.681753696656227
1728303252015923000,7.4199228515625,0.040113399201631546,0.5156146134054288,-2.919543338860571
1728303252025983000,7.42998291015625,0.35326983255743977,0.5038062483204528,-2.7821424086004494
1728303252036043300,7.440043212890625,0.6038081894367933,0.4669778621388599,-2.357737138850987
1728303252046103300,7.450103271484375,0.1722515866279602,0.9801626911140978,-2.253417224937677
1728303252056163000,7.4601630859375,0.39862054789066315,0.47153391800802197,-2.2901306064374745
1728303252066223000,7.47022314453125,0.3789800278753042,0.4124132551932707,-2.0916437777042387
1728303252076283100,7.480283203125,0.6804033533394336,0.5934242676643654,-1.8089808284200728
1728303252086343200,7.49034326171875,0.322258023700118,0.5556164054587484,-1.8237034735165536
1728303252096403200,7.5004033203125,0.5636743319690227,0.467986089333333,-1.8596745122164486
1728303252106463200,7.510463134765625,0.45269232981801033,0.22126634089406577,-1.7540294871792197
1728303252116523000,7.52052294921875,0.5374485883444547,0.5491413276931271,-1.8853797390982507
1728303252126583000,7.5305830078125,0.3144827135235071,0.4274644746569916,-1.7967295418731868
1728303252136643000,7.54064306640625,0.706798023790121,0.3121502154553309,-2.0144361809916793
1728303252146703400,7.550703369140625,0.3778057233989239,0.5042896113906056,-1.8362702557533979
1728303252156763100,7.56076318359375,0.24262568405866622,0.38813385986350474,-1.9155192951656876
1728303252166823200,7.5708232421875,0.2698790171653032,0.6938026408776641,-2.0840100679554046
1728303252176883200,7.58088330078125,0.2228974857598543,0.29419542003720994,-1.8305438409306107
1728303252186943000,7.59094287109375,-0.13175181845724582,0.3652943246111274,-2.1448478368863464
1728303252197003000,7.6010029296875,-0.23545126238465308,0.3504296772280708,-1.8943590182371437
1728303252207063300,7.611063232421875,-0.014928689062595367,0.5300471895141526,-2.084453427808732
1728303252217123000,7.621123046875,0.14587094470262527,0.4152868744008243,-2.3151659712336956
1728303252227184000,7.63118408203125,-0.29892098725438115,0.28282157391197976,-2.100645999327302
1728303252237243100,7.6412431640625,-0.08149345733821392,0.610787344267033,-2.2115175268411633
1728303252247303200,7.65130322265625,0.04021276792287826,0.47861605828870085,-2.218210448608547
1728303252257363200,7.66136328125,-0.11602701058089733,0.2572857487803325,-2.1462585804671046
1728303252267423200,7.67142333984375,-0.23396190060973165,0.4361513101879507,-2.109316797038913
1728303252277483300,7.681483154296875,0.020526070678234098,0.46944980521034446,-1.966751323622465
1728303252287543000,7.69154296875,0.030759879922866818,0.36079368872363116,-2.317530070016533
1728303252297603000,7.70160302734375,-0.24568156449794767,0.48763610782939937,-1.755391277051717
1728303252307664100,7.7116640625,0.09495499645769595,0.671578387979418,-2.192818379329145
1728303252317724200,7.72172412109375,-0.03351473158895969,0.49779513480477033,-2.03690388725698
1728303252327784000,7.731783935546875,-0.01385667591691017,0.21876276057530195,-2.2080577417761087
1728303252337844200,7.74184423828125,0.024678514182567595,0.5639019667124375,-2.0159718661263586
1728303252347904300,7.751904296875,0.41127252419292926,0.5101879121815786,-2.257856814820319
1728303252357964000,7.761964111328125,0.05191372711062431,0.5687455708187074,-2.117100582782924
1728303252368024000,7.772024169921875,0.42828094213902945,0.17693115927893668,-2.2835190793432294
1728303252378084000,7.782083984375,0.5457978990167379,0.5274964821180328,-2.1486162495091556
1728303252388144000,7.79214404296875,0.7754635637372732,0.6546293720703572,-2.297288953759521
1728303252398204200,7.8022041015625,0.5467670363098383,0.25455095352157947,-2.182704835463315
1728303252408264200,7.81226416015625,0.7938549604743719,0.48340398668497797,-2.093200651757419
1728303252418324200,7.82232421875,0.5469798022776842,0.3154751586269587,-2.4159739315032955
1728303252428384000,7.832384033203125,0.8847095358759164,0.5355758532751351,-2.2270276690535247
1728303252438444000,7.842444091796875,0.7443284207612275,0.3404124333435669,-2.238949869776517
1728303252448504300,7.85250439453125,0.7934972330778837,0.3069276585014537,-2.2851598322875795
1728303252458564000,7.862564208984375,0.5964981586843728,0.5253487294996158,-2.3537711578294633
1728303252468624100,7.8726240234375,0.7101479187399149,0.3375975220533088,-2.248333638063073
1728303252478684000,7.882683837890625,0.8028530904442072,0.2075243773980066,-2.3536298496626316
1728303252488744000,7.892743896484375,0.6055401277959347,0.4562586805300787,-2.1816288767948744
1728303252498804000,7.902803955078125,0.3883300400227308,0.4297238344237208,-2.18562393778041
1728303252508864000,7.912864013671875,0.4069271884649992,0.36341366196367886,-2.086606806450337
1728303252518923000,7.922923095703125,0.3121142308264971,0.06303052973486482,-2.3288890838988126
1728303252528983000,7.932983154296875,0.23005437177717683,0.5867026312591508,-2.1676761931575834
1728303252539043000,7.94304296875,0.12642565499842165,0.3317289953460917,-2.326667023935169
1728303252549103000,7.95310302734375,0.24308161113262175,0.10437065771985798,-2.0741563440695403
1728303252559163100,7.9631630859375,0.016152093377709387,0.2819652128109708,-2.5096999706879255
1728303252569223000,7.973222900390625,-0.1793319002777338,0.2570137999711558,-2.0217264841303226
1728303252579283000,7.983282958984375,0.008147066098451615,0.4109014258582145,-2.1590023267060516
1728303252589343000,7.993343017578125,-0.15784370656907556,-0.09451306137647479,-2.103504895889759
1728303252599403000,8.003403076171875,-0.12938333576023578,0.27670911891367284,-2.175418477847427
1728303252609463000,8.013463134765624,-0.23322248041927812,0.2792712610192597,-2.0665644276358184
1728303252619523000,8.023523193359376,-0.03127250562012195,-0.015566219781152904,-2.1813290170654653
1728303252629583000,8.0335830078125,-0.2807955479770899,0.11928988483436405,-2.224652172093838
1728303252639643000,8.043642822265625,-0.2655371885687113,0.16363379774522036,-2.153221697477996
1728303252649703000,8.053702880859374,-0.16380641436576843,0.05808423243910074,-2.225764224988967
1728303252659763200,8.06376318359375,-0.12846855900287626,0.11438253130950032,-2.284732546786219
1728303252669823000,8.073822998046875,-0.27147710001170633,-0.040242761202342804,-2.1875113589622077
1728303252679883000,8.083883056640625,-0.1394903037548065,0.05560461751781404,-2.1086977883577345
1728303252689943000,8.093943115234374,-0.0034200375765562055,0.03616221389044076,-2.373149519777298
1728303252700002800,8.1040029296875,-0.153463884049654,0.01250007367618382,-2.0121099300011993
1728303252710063000,8.11406298828125,-0.000007014262676239014,0.04550616162326187,-2.2007107400141654
1728303252720123100,8.124123046875,0.02330313417613506,0.030555954848602414,-1.987748372813314
1728303252730183000,8.134182861328124,0.13549509663879872,0.014092311303690075,-2.111091990017891
1728303252740243000,8.144242919921876,-0.1537339331626892,0.036905871864594514,-2.053774358037114
1728303252750303000,8.154302978515625,0.24285598568320274,0.024855039793252945,-1.9045669623881578
1728303252760363000,8.164363037109375,0.24670330876111982,0.027581396017223595,-2.162676485174149
1728303252770423000,8.174423095703125,-0.17786708842217921,-0.0636244405074045,-2.106808029088378
1728303252780483000,8.184483154296874,0.16285364368557928,0.14155633290652184,-1.8970570251494645
1728303252790543000,8.194543212890625,0.4460749575048685,-0.20118019600305706,-2.255114968766272
1728303252800603000,8.204602783203125,-0.09290332462489605,0.09934965122006834,-1.8634347415328025
1728303252810663000,8.214662841796875,0.3404471758633852,-0.1675827545667067,-2.142272725701332
1728303252820723000,8.224722900390624,0.3498877889037132,-0.10225936465431004,-1.8881664472073316
1728303252830783000,8.234782958984376,0.2201256829589605,-0.16252017394751309,-1.9560313382960854
1728303252840843000,8.244843017578125,0.23953765491545198,-0.2518146238928661,-1.9471837227128446
1728303252850903000,8.254903076171875,0.48908466266989703,-0.2606402103073895,-1.7978002398446202
1728303252860963000,8.264963134765624,0.566696894660592,-0.1809212518284097,-1.8872179143108427
1728303252871022800,8.27502294921875,0.25942367412447925,-0.3766001104688272,-1.831255057939887
1728303252881083100,8.285083251953125,0.3920984526455402,-0.43442141765542325,-1.8288972427673638
1728303252891143200,8.29514306640625,0.3188578598678112,-0.45886225062459707,-1.8522079757280647
1728303252901203000,8.305202880859374,0.34139000967144967,-0.560053766851686,-1.7496816672332585
1728303252911263000,8.315262939453126,0.36208150004446504,-0.4747455735309049,-1.7471616472363471
1728303252921323000,8.325322998046875,0.4174614419609308,-0.7186301350768655,-1.8120413850344717
1728303252931382800,8.3353828125,0.352219446721673,-0.6148432320617139,-1.608860261005163
1728303252941443000,8.345443115234374,0.5971387946754694,-0.7077467758823186,-1.7636869578406213
1728303252951503000,8.355503173828126,0.48595220986306664,-0.6364625048041344,-1.6960409701995551
1728303252961563100,8.365563232421875,0.567926144194603,-0.7104462440993636,-1.6366824800409376
1728303252971623000,8.375622802734375,0.387425200137496,-0.7582979094028472,-1.7789609532095492
1728303252981683000,8.385682861328124,0.5416524697750806,-0.6791888629831373,-1.6333809542775153
1728303252991743000,8.395742919921876,0.3737076404303312,-0.7775437310121953,-1.7593967133007942
1728303253001803000,8.405802978515625,0.4484241509795189,-0.6456177250318229,-1.7227195721581576
1728303253011863000,8.415863037109375,0.19258476508259773,-0.7663730793088674,-1.6150909720882773
1728303253021923000,8.425923095703125,0.39630291859805583,-0.6553942920282483,-1.7281832443915306
1728303253031982800,8.43598291015625,0.2784486925899982,-0.7953986097197979,-1.7596053876154123
1728303253042043000,8.44604296875,0.17706863152086733,-0.5742360579937696,-1.4643459916085004
1728303253052103200,8.456103271484375,0.10305588532686233,-0.6261259658373892,-1.7603139742761849
1728303253062163200,8.4661630859375,0.2940817305296659,-0.7873650139331817,-1.6336534876085818
1728303253072223000,8.476222900390624,0.312289587393403,-0.5855148827793076,-1.6105007216885685
1728303253082283000,8.486282958984376,0.3798889594137668,-0.5069584287410601,-1.8246259951889514
1728303253092343000,8.496343017578125,0.275429637029767,-0.5740459787817671,-1.6424137171693145
1728303253102402800,8.50640283203125,0.34110067133605476,-0.5827932757956907,-1.5978148431167005
1728303253112464000,8.5164638671875,0.3164022834092378,-0.47210254820883274,-1.792413432239741
1728303253122524000,8.52652392578125,0.07297405079603195,-0.4047321991713717,-1.557231488315761
1728303253132584200,8.536584228515625,0.3391840240597725,-0.6301132819078862,-1.6198092327818274
1728303253142644000,8.54664404296875,0.22248656687140464,-0.45239217782765623,-1.5625807403892278
1728303253152704000,8.5567041015625,0.19123744212687013,-0.5615144505213946,-1.4827800584435462
1728303253162764000,8.566763916015624,0.24677111330032347,-0.515158613266237,-1.3390727215155958
1728303253172823800,8.57682373046875,0.09907821386754512,-0.5914773713802919,-1.4295773144356905
1728303253182884000,8.586884033203125,0.08681669818758964,-0.5305807849342004,-1.0470641439981758
1728303253192944000,8.596944091796875,0.21921908950805663,-0.6930186508931219,-1.2737157215945423
1728303253203004200,8.607004150390624,-0.07588380076289176,-0.7017150214374065,-1.1991881577461958
1728303253213064000,8.61706396484375,-0.0030482816547155378,-0.6859820302546024,-1.0416455530155448
1728303253223124000,8.6271240234375,-0.08301087616384029,-0.725442518505454,-1.1456737174406646
1728303253233184000,8.63718408203125,-0.1110825399160385,-0.8902244999051093,-1.099751778090745
1728303253243244000,8.647244140625,-0.3648281684041023,-1.0673730647943913,-1.0219178661733865
1728303253253304000,8.657303955078126,-0.14915537320077418,-0.9076808808144181,-0.9527364856585859
1728303253263364000,8.667364013671875,-0.061600423866510386,-1.1064169350683688,-0.965734279723838
1728303253273424000,8.677423828125,0.04136953674256801,-1.159661837717518,-0.9285257351182401
1728303253283484000,8.68748388671875,-0.05316401943266391,-1.0463742620378733,-0.8354960806999355
1728303253293544000,8.6975439453125,0.159480367860198,-1.3222770695373416,-1.1734674410343169
1728303253303604000,8.70760400390625,-0.2755085474848747,-1.2824518396273255,-0.7715833613030612
1728303253313664000,8.7176640625,0.1051747771769762,-1.2868443754978478,-0.9544866172615438
1728303253323724000,8.72772412109375,0.12105915952920913,-1.2512626283764838,-1.2182296889550983
1728303253333784000,8.7377841796875,0.03294131561517715,-1.3979868289075792,-1.0401080412499606
1728303253343843800,8.74784375,0.10955459969639778,-1.342418232551217,-0.9879434081181884
1728303253353904000,8.757904052734375,0.2885159130960703,-1.2920552420139313,-1.2157790078673512
1728303253363964200,8.767964111328125,0.07648994996249675,-1.20294780254066,-0.9805760211553424
1728303253374024000,8.77802392578125,0.09025368689894675,-1.2527039132259785,-1.105233789698407
1728303253384084000,8.788083984375,0.16656711125075815,-1.1890760751850902,-1.1656912540748714
1728303253394144000,8.79814404296875,0.07276654552519321,-1.2558674918234347,-1.1277584137827157
1728303253404203800,8.808203857421875,0.22392449072003362,-1.1504966075524687,-1.1089115283630788
1728303253414264000,8.81826416015625,0.09108604606986045,-1.0587573582708836,-1.233586540301889
1728303253424324000,8.828323974609376,0.13483400238156318,-1.0743053482756018,-1.1563744866099208
1728303253434384100,8.838384033203125,0.22211890260279177,-1.0980945124030113,-1.1655927621364592
1728303253444444000,8.84844384765625,0.5052700737953185,-0.9599044775918125,-1.080176286135614
1728303253454504000,8.85850390625,0.2323568035006523,-0.8859711533095687,-1.2026797992542386
1728303253464564000,8.86856396484375,0.135298697283864,-0.9100126116976142,-1.0102017094165086
1728303253474624300,8.878624267578125,0.26552491360902786,-0.9410071771591901,-0.8286156004711985
1728303253484684300,8.888684326171875,0.5953419743865728,-0.7737503300786018,-1.1308860442839561
1728303253494744000,8.898744140625,0.1437561445057392,-0.8291548949796705,-0.8681445508483797
1728303253504804000,8.90880419921875,0.21906126859784125,-0.8782736576095223,-0.6813651841089129
1728303253514864000,8.918864013671875,0.5355377862870693,-0.7048077267557382,-0.8501975368779152
1728303253524924200,8.928924072265625,0.32653263227939605,-0.8009970873139798,-0.5790649029223248
1728303253534984200,8.938984130859374,0.29650223567485806,-0.8931874413639307,-0.6920950332421809
1728303253545044200,8.949044189453126,0.3864864579826593,-0.7986496474049984,-0.6122570149607957
1728303253555104000,8.95910400390625,0.37101240999698637,-0.7502097338847815,-0.761630122565478
1728303253565164000,8.9691640625,0.016659458377957344,-0.7858265523195266,-0.5550576755974441
1728303253575224000,8.97922412109375,0.1200327390909195,-0.7432974702782928,-0.7914616355970502
1728303253585284400,8.989284423828124,0.1852490153670311,-0.933344095185399,-0.7594335623692721
1728303253595344100,8.99934423828125,0.08199906877279281,-0.8801120520178228,-0.6537703440882265
1728303253605404200,9.009404052734375,-0.1712099686205387,-0.8840840243887156,-0.518538355365023
1728303253615464200,9.019464111328125,0.08524433430433273,-0.9463158780265599,-0.6607602029755711
1728303253625524000,9.02952392578125,-0.14381167408525944,-1.0300143711283802,-0.45338926257360723
1728303253635584000,9.039583984375,-0.14871873534917832,-1.0158942219696938,-0.4999433623472228
1728303253645644300,9.049644287109375,-0.1699509084701538,-1.0055476000003516,-0.4865547423334792
1728303253655704000,9.0597041015625,-0.09799334124028682,-1.1781924237295984,-0.439477458935976
1728303253665764000,9.06976416015625,-0.030438977405428884,-1.3257491295620798,-0.2419069230637513
1728303253675824000,9.07982421875,-0.07078969249427318,-1.1632201877862214,-0.2872024924099445
1728303253685884200,9.08988427734375,0.09123860628306865,-1.1435367054119705,-0.05097147782444954
1728303253695944200,9.099944091796875,0.11304536442160605,-1.4375580840565263,-0.16619051475701851
1728303253706004200,9.110004150390624,0.25037878240346906,-1.389621590013802,-0.2939023919073865
1728303253716064300,9.120064208984376,0.08457330317497253,-1.268552055221051,-0.16021533107124267
1728303253726124000,9.1301240234375,0.34536183591187,-1.242691637777537,-0.2345712646797299
1728303253736184000,9.14018408203125,0.2722182737678289,-1.3466940101742744,-0.4550044792179018
1728303253746244000,9.150244140625,0.12302490664422511,-1.4536878194719551,-0.4164623113883659
1728303253756304100,9.16030419921875,0.17810791144073007,-1.44560811952129,-0.18887186377299947
1728303253766364200,9.1703642578125,0.2050304051578045,-1.1946640313852577,-0.4197241992611438
1728303253776424200,9.180424072265625,0.14595862298607826,-1.2635405106693505,-0.2559140585683286
1728303253786484200,9.190484130859375,0.27826398367285726,-1.2819085265308618,-0.0714534536326304
1728303253796544000,9.2005439453125,0.06689619218707084,-1.2303279768973587,-0.2897093423980288
1728303253806604000,9.21060400390625,-0.11183598863184452,-1.0703358601227402,-0.2017914232365787
1728303253816664300,9.220664306640625,0.13349486273229122,-1.1737483038023113,-0.2265942213859409
1728303253826724000,9.23072412109375,0.3249386410862207,-1.145752116439119,-0.3334777021769434
1728303253836784000,9.2407841796875,-0.06370528719127178,-0.9640268912840634,-0.39076742323748764
1728303253846844200,9.25084423828125,0.051097734552621836,-0.9299790757317096,-0.4635491663318127
1728303253856904000,9.260904052734375,0.1815893238157034,-0.8148113853938878,-0.45640557818748057
1728303253866964200,9.270964111328125,0.11876081945896148,-0.7608394105792046,-0.44222467528488485
1728303253877024300,9.281024169921874,0.21965864996910095,-0.8211806281648576,-0.4420036529453471
1728303253887084300,9.291084228515626,0.15920388900637625,-0.6644246437672525,-0.3721305273067206
1728303253897144000,9.30114404296875,0.10004852020442485,-0.3540527265634388,-0.3541386512812227
1728303253907204000,9.3112041015625,0.233825122487545,-0.4231435792505741,-0.42331005839128044
1728303253917264100,9.32126416015625,0.26809388731420036,-0.5973747223231941,-0.38689350441358983
1728303253927324200,9.33132421875,0.14396891047358512,-0.1392539377156645,-0.3993288422904908
1728303253937384200,9.34138427734375,0.13376374280154704,-0.04795527180843055,-0.35285102262347934
1728303253947444200,9.3514443359375,-0.027668928170204162,-0.15066658148132264,-0.5183852836951613
1728303253957504000,9.36150390625,0.1350064363390207,-0.14589944014474748,-0.5775557039357722
1728303253967564000,9.37156396484375,0.38510289466977116,0.11278459459356963,-0.39750418414659794
1728303253977624000,9.3816240234375,0.07441139012277126,0.23839769110009074,-0.35937085284627973
1728303253987684000,9.39168408203125,-0.0508989971101284,0.17376761721409856,-0.5081995513759553
1728303253997744000,9.401744140625,0.23899404955804346,0.38454664902649816,-0.2684490208948031
1728303254007804200,9.41180419921875,0.13737374999225138,0.765767149304971,-0.25633275890443474
1728303254017864200,9.4218642578125,0.4149257860034704,0.3511431957922876,-0.20355549203334375
1728303254027924000,9.431924072265625,0.010555296283960342,0.3082008202424273,-0.15103271137997507
1728303254037984300,9.441984375,0.282667771589756,0.7627185023240745,-0.10769233122216537
1728303254048044300,9.452044189453124,-0.32864626343250275,0.7798368103854357,-0.09373780268765985
1728303254058104000,9.46210400390625,-0.09435235438942909,0.4398663486557081,-0.19389409411549566
1728303254068164000,9.4721640625,0.2653191619038582,0.7445460090346634,-0.16259932186463846
1728303254078224100,9.48222412109375,0.24702070414721963,1.305030166660249,-0.06404988111155108
1728303254088284000,9.492283935546874,-0.47204877219498154,0.9798178231991826,-0.07205467092879116
1728303254098344200,9.50234423828125,-0.08983516922593117,0.5930716183017939,-0.021894911346025763
1728303254108404200,9.512404296875,0.09574293196499348,0.7305370651654899,-0.12021805079625919
1728303254118464300,9.52246435546875,-0.24928455742597577,0.566642826385796,0.1760982521187514
1728303254128524000,9.53252392578125,-0.04650222345590591,0.3331515024298802,-0.2686463518314995
1728303254138584000,9.542583984375,-0.04786123684942722,0.4398993376098573,0.019401742823421955
1728303254148644000,9.55264404296875,-0.4264367755770683,0.650823623111844,0.16140614829100666
1728303254158704000,9.5627041015625,-0.11409984191060066,0.4985375872025266,-0.12194940463351085
1728303254168764200,9.57276416015625,-0.13042144663631916,0.40606140194851903,0.05000478821676224
1728303254178824200,9.58282421875,-0.14038228415846823,0.47392358962353315,0.06606998876230791
1728303254188884000,9.592884033203125,0.00917816271185875,0.5780884591056034,0.0508892246347852
1728303254198944000,9.602944091796875,-0.047027124112844466,0.34408889336660503,0.06354879972161724
1728303254209004300,9.61300439453125,0.5984358487486839,0.24461799038704482,-0.09504625493772327
1728303254219064300,9.623064208984376,0.2093903539329767,0.696265377729386,0.09263104702215641
1728303254229124000,9.6331240234375,0.19280103818178176,0.3531913970263675,-0.06117912971451878
1728303254239184100,9.64318408203125,0.3474865729808807,0.27919209483582524,-0.12683127665724606
1728303254249244200,9.653244140625,0.4441314222216606,0.7169349485315382,-0.08512907389421015
1728303254259304000,9.663303955078124,0.24147066880464552,0.4687340581564232,-0.08003856408847496
1728303254269364200,9.6733642578125,0.4205769436329603,0.493199842903763,-0.23808931927066296
1728303254279424300,9.68342431640625,0.3554460075527429,0.35767888117134566,-0.0319513181971386
1728303254289484000,9.693484130859375,0.5918038633882999,0.44759453175496305,-0.26466393113182857
1728303254299544000,9.7035439453125,0.3455395305663347,0.607549348726496,-0.07435202461834997
1728303254309604000,9.71360400390625,0.46568449786007404,0.39023269530627874,-0.21520864829029887
1728303254319664000,9.7236640625,0.8090940306603908,0.4972242761142552,-0.3901441767726093
1728303254329724200,9.73372412109375,-0.006695698246359825,0.4274492770878598,-0.30841150385104116
1728303254339784200,9.7437841796875,0.3186345725059509,0.2696586158802733,-0.41788587791807946
1728303254349844200,9.75384423828125,0.18342530707120894,0.6435691219389438,-0.42995698559246953
1728303254359904000,9.763904052734375,0.3950672393232584,0.3109824868502095,-0.36752266818508506
1728303254369964000,9.773964111328125,0.3989011183977127,0.5105176921252161,-0.43589521653503177
1728303254380024300,9.7840244140625,-0.2773825246632099,0.4437867004372179,-0.3596976736478507
1728303254390084000,9.794083984375,0.2926461447685957,0.4506224282087758,-0.48067770352624356
1728303254400144100,9.80414404296875,-0.20750176370739937,0.486463885712251,-0.22583496398385614
1728303254410204200,9.8142041015625,0.26140344976484775,0.45009895232394337,-0.4948164112549275
1728303254420264200,9.82426416015625,0.012061024671792984,0.4473956847146153,-0.21598160542417316
1728303254430324000,9.834323974609376,-0.2098749225795269,0.30745993874724953,-0.40199141256324944
1728303254440384300,9.84438427734375,-0.08599661397635937,0.5687288754122332,-0.45179187384694813
1728303254450444300,9.8544443359375,-0.49094987201988693,0.4478335646752268,-0.3160932905253023
1728303254460504000,9.864504150390625,0.19300912797451017,0.16845844142269342,-0.34300613963119686
1728303254470564000,9.874564208984374,-0.14552432322204112,0.620425489173457,-0.28038654705109073
1728303254480627700,9.884627685546874,0.15177578483223914,0.5656026331504806,-0.22331488918801767
1728303254490687700,9.894687744140626,-0.10985562846958637,0.44901371437050397,-0.1660789076087065
1728303254500747800,9.904747802734375,-0.2062888807862997,0.0962892407361418,-0.10101652498636395
1728303254510807800,9.914807861328125,0.2802408367037773,0.7119351674828678,-0.26950106896469367
1728303254520867800,9.924867919921875,-0.35966625559628007,0.2780669267307967,0.012567165829334407
1728303254530927600,9.934927734375,0.21281214507520196,0.4895638610215857,-0.33735973124206065
1728303254540987600,9.944987548828125,0.2593950325518846,0.3726252885537222,-0.10968746882844715
1728303254551047700,9.955047607421875,0.234832253703475,0.6214840583156794,-0.12601228842455894
1728303254561107700,9.965107666015625,-0.18991759169995784,0.46643012859560545,-0.0759803016736172
1728303254571167700,9.975167724609374,0.3086293113201856,0.3721184350101277,-0.36402065141350026
1728303254581227800,9.985227783203126,-0.026025837138295174,0.4610580071032047,0.02479459657659754
1728303254591287800,9.995287841796875,-0.11071136851608752,0.5268988084858283,-0.19629372086944058
1728303254601347600,10.00534765625,0.5129056832402944,0.6706465139567852,-0.12217106629386544
1728303254611408000,10.015407958984374,-0.1106909102499485,0.43196799662131813,-0.0655791365054436
1728303254621468000,10.025468017578126,0.13776654870212077,0.6411226786348968,-0.13780850641401485
1728303254631527700,10.035527587890625,-0.38142099128663537,0.5524989675579592,0.10007327105319126
1728303254641587700,10.045587646484375,-0.01758767913877964,0.5498582803234457,-0.09548826308418065
1728303254651647700,10.055647705078124,-0.12486030537784099,0.1876982351500541,0.15090283792261033
1728303254661707500,10.06570751953125,0.048641573572158814,0.636809637741372,-0.046317404940910634
1728303254671767800,10.075767822265625,-0.2402607084929943,0.4806836583429947,0.1938415967432782
1728303254681827800,10.085827880859375,0.13376082019209862,0.2985206628251821,-0.07272798534678294
1728303254691887900,10.095887939453124,-0.13132628652155398,0.5872848150612786,0.16812299892324953
1728303254701947600,10.10594775390625,0.002828501424193382,0.45604470898583527,-0.05410369316926226
1728303254712007700,10.116007568359375,-0.14538871414363383,0.5233026106247678,-0.07891730497358367
1728303254722067700,10.126067626953125,-0.09582651859521865,0.3284529328174889,0.0038596345702186226
1728303254732127700,10.136127685546874,0.10231412704885005,0.4811722821101546,-0.06625329117365181
1728303254742187800,10.146187744140626,-0.10636311017870903,0.5456668199829757,-0.03089450262058526
1728303254752247800,10.156247802734375,0.43939621039330956,0.4908133130934089,-0.17368523616027087
1728303254762307600,10.1663076171875,-0.09855798938572406,0.5620582020092755,0.013335958244744688
1728303254772367600,10.17636767578125,0.3002782470822334,0.4264601564526558,-0.1655089074347168
1728303254782428000,10.186427978515624,-0.23842706332504748,0.5494132765023038,-0.05615470741493627
1728303254792488000,10.196488037109376,0.36505320933163166,0.26474921652879563,-0.17947289791731164
1728303254802547700,10.206547607421875,-0.15631050565242766,0.4702946220040321,-0.08460125062782317
1728303254812607700,10.216607666015625,0.12139292152822016,0.4663452633237466,-0.20269726776881142
1728303254822667800,10.226667724609374,0.2083013896524906,0.36367315315008164,-0.2052225484627299
1728303254832727600,10.2367275390625,0.22484394365251062,0.44699744264464825,-0.2652385344156995
1728303254842787800,10.246787841796875,-0.08431962067484855,0.5402097966860979,-0.1616240470916964
1728303254852847900,10.256847900390625,0.394870255446434,0.41949035397265105,-0.3264773949608207
1728303254862907600,10.26690771484375,0.0096726682305336,0.53110952151604,-0.19647523318249732
1728303254872967700,10.2769677734375,0.29583763428628446,0.45897422309909014,-0.28045278068771584
1728303254883027700,10.28702783203125,0.2897960160344839,0.36362142296284433,-0.3545721473276615
1728303254893087700,10.297087646484375,0.21103110687732696,0.43898368406966326,-0.34680421673990786
1728303254903147800,10.307147705078124,0.17340835544764996,0.424024526803568,-0.2597903154797852
1728303254913207800,10.317207763671876,0.2309703175783157,0.43697464580219236,-0.3790316484646871
1728303254923267800,10.327267822265625,0.13639467582702636,0.43139721099603917,-0.32100225148536266
1728303254933327600,10.33732763671875,0.23139526499211788,0.3027180049171671,-0.3120795248392969
1728303254943387600,10.3473876953125,0.2275023492068052,0.6056287193948403,-0.29916064122915265
1728303254953448000,10.357447998046876,0.1821726766616106,0.30685408180858936,-0.33759339386746284
1728303254963507700,10.3675078125,0.3131500036150217,0.4807326851164922,-0.34066417961493134
1728303254973567700,10.377567626953125,0.23746961646974085,0.45724184634853154,-0.32636253640949725
1728303254983627800,10.387627685546875,0.31983985664248465,0.433346262704581,-0.4486167144095525
1728303254993687800,10.397687744140624,0.19527473481893537,0.2406826236994937,-0.23270634759068487
1728303255003747600,10.40774755859375,0.4036404218792915,0.4800135770617053,-0.35024529710449276
1728303255013807900,10.417807861328125,0.19812603259682654,0.3673063585532829,-0.27767549799410624
1728303255023868000,10.427867919921875,0.30403321570158004,0.49739565062578767,-0.2184612934106961
1728303255033927700,10.437927734375,0.07248422145247459,0.2603698324007913,-0.11433745005875826
1728303255043987700,10.44798779296875,0.12183540459871292,0.5960084024060517,-0.19651638717679307
1728303255054047700,10.4580478515625,-0.029634090763330456,0.25178631111383437,-0.0053554991511628024
1728303255064107800,10.468107666015625,-0.016494623205065725,0.4720661251885816,-0.17355017507113515
1728303255074167800,10.478167724609374,-0.07820493718683719,0.48917080658338963,-0.01929108552318066
1728303255084227800,10.488227783203126,0.187369660782814,0.39586839963831005,-0.2048203243373893
1728303255094288000,10.498287841796875,-0.3144195851594209,0.518333188181743,0.011727006944455205
1728303255104347600,10.50834765625,-0.021502806755900383,0.1393991183400154,-0.22007526794597504
1728303255114407700,10.51840771484375,-0.3169581637263298,0.6074674425967037,0.12514960718061774
1728303255124468000,10.528468017578126,-0.07040390804708004,0.3406943920901045,-0.07902997156782075
1728303255134527700,10.53852783203125,-0.027069208711385725,0.4146529969440773,-0.05734720513513311
1728303255144587800,10.548587890625,-0.07293488782942295,0.370125069235824,-0.0497719475752674
1728303255154647800,10.558647705078124,-0.12102291917204856,0.5252662753805518,0.16692334080990404
1728303255164707600,10.56870751953125,-0.20808862368464467,0.3870203456636518,0.018805311300233007
1728303255174767600,10.578767578125,-0.13331833712160587,0.5089385331749916,0.02601109622688964
1728303255184828000,10.588827880859375,-0.008822773402929305,0.33806660086978224,0.196527803619951
1728303255194887700,10.5988876953125,0.17714345032274723,0.30060258366577325,-0.056373519531078636
1728303255204947700,10.60894775390625,-0.21242109993100164,0.5009853091482073,0.23330975684393196
1728303255215007700,10.6190078125,0.32739947824180127,0.31547599887717515,-0.021193284149002282
1728303255225067800,10.62906787109375,0.1226250936716795,0.39665615248251707,0.14205606258958578
1728303255235127800,10.6391279296875,0.08385492577254772,0.3948802653837949,0.05524663439299911
1728303255245187800,10.649187744140624,0.014973697248101233,0.5333173337586223,0.1616043925431557
1728303255255248000,10.659247802734376,0.3790022397071123,0.3187161133095622,-0.05464452204769477
1728303255265307600,10.6693076171875,-0.12364625341296195,0.5126235052980482,0.1039198452124372
1728303255275367700,10.67936767578125,0.0829278740555048,0.32280411327555775,0.01787020414089784
1728303255285427700,10.689427734375,0.09459259288609027,0.4397204739116132,0.0002710354937240481
1728303255295487700,10.69948779296875,-0.0037660745352506636,0.46040067570563403,-0.049013018966745585
1728303255305547800,10.7095478515625,0.2185527345538139,0.24868677419591695,-0.11165904289605096
1728303255315607800,10.71960791015625,-0.02420505145192146,0.44066612073127176,-0.018240590089559555
1728303255325667800,10.729667724609374,0.07020166347324848,0.1695735265251249,-0.05047675311006605
1728303255335727600,10.7397275390625,-0.010362404060363768,0.4536618324372917,-0.05051054578181356
1728303255345787600,10.74978759765625,0.029678514426946637,0.20283874033242463,-0.10953105442402884
1728303255355848000,10.759847900390625,-0.11194470970332622,-0.07897953828852623,-0.1773782089266926
1728303255365907700,10.76990771484375,-0.05746025532186031,-0.5990714797711,0.09655614804401993
1728303255375967700,10.7799677734375,0.19771686727404594,0.17774996484853325,-0.135954055920057
1728303255386027800,10.79002783203125,-0.04497486775815487,0.8981010784991085,-0.0733311388717033
1728303255396087600,10.800087646484375,0.03266366771757603,0.15131730047501624,-0.045720589825231576
1728303255406147800,10.81014794921875,-0.13998597831726073,0.10385605926122515,-0.015386113973893225
1728303255416208000,10.820207763671876,0.41427462861835956,0.3467480661058798,0.04986537974607199
1728303255426268000,10.830267822265625,0.4286240564882755,0.515023077253066,-0.2139929888902232
1728303255436327700,10.84032763671875,0.1284288115143776,-0.5118860213363543,-0.15205772531246767
1728303255446387700,10.8503876953125,-0.20412848788201807,-0.7176064180523156,0.040236075733229515
1728303255456447700,10.86044775390625,0.187192550650239,0.4571902622917667,-0.06829157380191608
1728303255466507800,10.8705078125,0.43801089351475236,0.49579486436564474,-0.2499236773134209
1728303255476563500,10.8805634765625,-0.10695639989674091,0.19619751221965998,-0.07217212329600006
1728303255486623200,10.890623291015626,-0.11625614316165446,-0.13326949301119892,0.07921583126243203
1728303255496683300,10.900683349609375,0.47481122264564035,0.12948248528577386,-0.259807924201712
1728303255506743600,10.91074365234375,0.3280120571821928,-0.22514102690294382,-0.11429794003227725
1728303255516803300,10.92080322265625,0.22621581652760506,-0.8099865955859422,-0.2050677780261263
1728303255526863400,10.93086328125,-0.16889117028415201,-0.19247746878322214,-0.11838329138346015
1728303255536923400,10.94092333984375,0.1240975043118,-0.027547238019295036,-0.3226649970658123
1728303255546983400,10.9509833984375,0.1892921532779932,0.07198120383378118,-0.22030560610312966
1728303255557043200,10.961043212890624,0.2707791808754206,-0.4143512740511447,-0.17040939282737672
1728303255567103500,10.971103515625,0.04356207835078239,-0.45971894051916895,-0.03211224437989294
1728303255577163500,10.98116357421875,0.20254735617041586,-0.8408860301099718,-0.1770175954533741
1728303255587223300,10.991223388671875,0.10266133305132388,-0.5153304627018049,-0.000970251537952572
1728303255597283300,11.001283447265624,-0.03615793957412243,-0.6804865015782415,-0.014974427900463341
1728303255607343400,11.01134326171875,0.036655952224135396,-0.6913841084938496,-0.19315069186966866
1728303255617403400,11.0214033203125,-0.12665771018862723,-0.03658182754199952,0.04362849465049803
1728303255627463400,11.03146337890625,0.21770985398888587,-0.7789689415097236,-0.3524778053969145
1728303255637523500,11.0415234375,0.04177577945590019,-1.284813600322604,-0.10350275231152772
1728303255647583500,11.05158349609375,0.3767155900746584,-0.9768528359137475,-0.13891259519839658
1728303255657643300,11.061643310546875,-0.02757657371163368,-0.5115061551732942,-0.24239277035193516
1728303255667703300,11.071703369140625,-0.4278045567989349,-0.9775766201436519,-0.17882610618006436
1728303255677763600,11.081763671875,-0.23833821599781513,-0.8861152379553765,-0.1384536359171383
1728303255687822300,11.091822265625,-0.06528934151232242,-0.7195736264720559,0.019194475014600903
1728303255697883400,11.10188330078125,0.3922422450304031,-0.7293094230666756,-0.2711949768683873
1728303255707943400,11.111943359375,-0.15941314784288405,-1.0112850476738064,-0.047954029699414966
1728303255718003200,11.122003173828125,0.12404139021039008,-1.1622494430579244,-0.18586731166215611
1728303255728062500,11.1320625,0.05152092840075492,-0.9795124835770577,-0.047303931760229165
1728303255738122500,11.14212255859375,0.2359995439171791,-0.8458397069945931,-0.2045703681643121
1728303255748182300,11.152182373046875,0.21036475192308424,-0.8043167332559823,-0.2522529970438219
1728303255758242300,11.1622421875,0.3131412357866764,-0.42978396711312233,0.047618550667352974
1728303255768302300,11.17230224609375,0.49536768846213813,-0.41252526420038194,-0.38978294224478305
1728303255778362400,11.1823623046875,-0.011035773277282715,-0.26280823852885515,-0.06827800193428993
1728303255788422400,11.19242236328125,0.5192401469588279,-0.06996741632595659,-0.06038032575333491
1728303255798482400,11.202482421875,0.1039765073031187,0.19005535620283334,-0.10033469846835359
1728303255808542500,11.21254248046875,0.23207097229659557,-0.022075784338265656,0.11666717164795845
1728303255818602200,11.222602294921876,0.13199322599768637,0.0331097309846431,-0.0912666268011555
1728303255828662300,11.232662353515625,0.14090017055273055,0.4889724709996953,0.07993910403568297
1728303255838722600,11.24272265625,0.31276421916782854,0.3942054348621517,-0.1029331174637191
1728303255848782300,11.2527822265625,-0.14159750516712666,0.2855525332458317,0.12261402428839355
1728303255858842400,11.26284228515625,0.2447176879018545,0.4286078725384548,-0.1309334512790665
1728303255868902400,11.27290234375,0.058225394475460046,0.5223327426793053,-0.266446850759536
1728303255878962200,11.282962158203125,-0.009774375039339065,0.44686183356624093,-0.14998265433777122
1728303255889022500,11.2930224609375,-0.312132935526967,0.17397150575574485,0.09513157686730846
1728303255899082500,11.30308251953125,-0.0470563502073288,0.2464674907112494,-0.034301498052477834
1728303255909142500,11.313142578125,-0.008657938230037689,0.4984889988204464,-0.06207489124415442
1728303255919202300,11.323202392578125,-0.22900457046329975,0.21611242872960865,-0.056862508624419564
1728303255929262300,11.333262451171874,-0.07095686575472354,0.14441449881661683,-0.14922378052817656
1728303255939322400,11.343322265625,-0.31993571823239325,-0.05129113823287189,0.08714081557542085
1728303255949382400,11.35338232421875,0.04818623102009296,-0.1331235086692497,-0.2188859850961715
1728303255959442400,11.3634423828125,-0.1537292569875717,-0.44741522966530173,0.22386101529607547
1728303255969502500,11.37350244140625,-0.010472878697514534,-0.5383620499275624,-0.11995501594590023
1728303255979562200,11.383562255859376,-0.41268063742518424,-0.6643928603895009,0.1629761192877777
1728303255989622300,11.393622314453125,0.29710896939635273,-0.7375672560632228,-0.2697497099635191
1728303255999682300,11.403682373046875,-0.06861877819597721,-0.8748030588895082,0.23676961497422305
1728303256009742300,11.413742431640625,0.29794074404537674,-1.4527660284519195,-0.5364081393808127
1728303256019802400,11.42380224609375,-0.24937223570942876,-1.0955063956059514,0.6406441744029522
1728303256029862400,11.4338623046875,0.7538625573039054,-1.2278968042276799,-0.32442217946406454
1728303256039922400,11.44392236328125,-0.28631694174706934,-1.1656158507511019,0.0646873387648724
1728303256049982200,11.453982177734375,0.5497527741223573,-1.4169906584545968,-0.3363212550397962
1728303256060042500,11.46404248046875,-0.28156010260879993,-1.0250257690608502,0.34787889676671474
1728303256070102500,11.4741025390625,0.6622808366715908,-1.1715995282705873,-0.2768350833809003
1728303256080162300,11.484162353515625,0.009936872124671935,-1.0878413408707828,-0.10337017544042318
1728303256090222300,11.494222412109375,0.32291268821656705,-0.633216070228815,-0.03376090663606301
1728303256100282400,11.504282470703124,0.27320085506439207,-0.8924368421923369,-0.17931966185066847
1728303256110342100,11.514342041015626,0.1271475395321846,-0.751257927763462,-0.1356096081302501
1728303256120402400,11.52440234375,0.4174614419609308,-0.6403988213397562,-0.1167586493236944
1728303256130462500,11.53446240234375,0.27503099310100076,-0.4981252435419708,-0.07769905175762251
1728303256140522500,11.5445224609375,0.4391197315394878,-0.3603279709080234,-0.3433826447933912
1728303256150582300,11.554582275390626,-0.2546785254240036,-0.7349887838773429,-0.10932714761607348
1728303256160642300,11.564642333984375,0.6098375327289104,-0.4015323071515187,-0.22863416624832897
1728303256170702300,11.574702392578125,-0.2924924155116081,-0.6566114857982843,-0.04741236057076603
1728303256180762400,11.584762451171875,0.5059440275341273,-0.4042142031792551,-0.2021233038057573
1728303256190822400,11.594822509765624,-0.20381752223670482,-0.7779588876843452,-0.045473684125766155
1728303256200882400,11.60488232421875,0.33652795659303664,-0.8207370491158217,-0.13454442658415064
1728303256210942200,11.614942138671875,-0.3136684745311737,-1.1020099322810768,-0.29951000265609473
1728303256221002200,11.625002197265625,0.14586568400561808,-0.8649483120903372,-0.08561700354162603
1728303256231062500,11.6350625,-0.2263181078583002,-1.3638957587353884,-0.16815090984348208
1728303256241122600,11.64512255859375,0.3753670980751514,-1.2698266052015126,-0.1667021175409667
1728303256251182300,11.655182373046875,-0.08511106331348418,-1.5951123061597345,-0.2606106371530332
1728303256261242400,11.665242431640625,0.12466215245723723,-1.5011537733934819,-0.015221406665164977
1728303256271302400,11.675302490234374,-0.0681359631150961,-1.7491447838775813,-0.22535487058302386
1728303256281362200,11.685362060546876,0.1673585538893938,-1.7728056454502046,0.031714221505634486
1728303256291422500,11.69542236328125,0.26856618100106716,-1.831475130431354,-0.2223515971138142
1728303256301482500,11.705482421875,0.25007600006461145,-1.7489350866496562,0.1781646831292659
1728303256311542300,11.715542236328124,-0.10352993257939815,-1.9651674154318868,-0.38733200542870905
1728303256321602300,11.725602294921876,-0.21675649878680706,-1.8415373825013637,0.20239591020205988
1728303256331662300,11.735662353515625,0.16133564033806322,-1.873355831566453,-0.30592556878682226
1728303256341722400,11.745722412109375,0.11032207693755626,-1.6756253741584717,0.17590095771467312
1728303256351782400,11.755782470703124,-0.07646540004312992,-1.6943068398833274,-0.14469875911809504
1728303256361842400,11.765842529296876,0.2196171489149332,-1.4818845709085464,0.22327705966196953
1728303256371902500,11.77590234375,0.02269055523574352,-1.6570365551531314,-0.3734403312636539
1728303256381962200,11.785962158203125,-0.005927636483311653,-1.5063763303473592,0.36421632011607286
1728303256392022300,11.796022216796874,0.5421557431221008,-1.2780991973757743,-0.4114485383469611
1728303256402082600,11.80608251953125,-0.07976561063230037,-1.2574782880209385,0.33324590271506455
1728303256412142300,11.816142333984375,0.2574485746592283,-1.455560627606511,-0.4706656472735107
1728303256422202400,11.826202392578125,-0.20545242996215818,-1.1739018869288265,0.4255835928138345
1728303256432262400,11.836262451171875,0.4794920739382505,-1.302782972255349,-0.5126595264595002
1728303256442322400,11.846322509765624,-0.10468553235530853,-1.4826882885068655,0.28013282801834866
1728303256452382200,11.85638232421875,0.37323885387480255,-1.179309298930317,-0.43326888661943375
1728303256462442500,11.8664423828125,-0.017535072168707845,-1.3183441140025853,0.15504066837970165
1728303256472502500,11.87650244140625,0.35447745478153225,-1.4310048630207777,-0.526303947865218
1728303256482563000,11.88656298828125,-0.26372926236391064,-1.5589583121083677,0.38261341594159604
1728303256492623000,11.896623046875,0.7758394113123417,-1.1935270632445811,-0.40262784730326384
1728303256502683000,11.906682861328125,0.16180442689359187,-1.7432566026218235,0.277530189505592
1728303256512743000,11.916742919921875,0.15626491294503211,-1.5899373877398668,-0.3472621896404773
1728303256522802200,11.92680224609375,-0.10477554872632026,-1.374497232248634,0.5230052716460079
1728303256532862000,11.936862060546876,0.8079413534939288,-1.7284047781877219,-0.3351616366758942
1728303256542922000,11.946921875,-0.13117957152724266,-1.8058751174896954,0.2941899036118761
1728303256552982000,11.95698193359375,0.05098433730602264,-1.554542395362258,-0.06490920135462656
1728303256563042000,11.9670419921875,0.2370890927195549,-1.5109741795316338,0.210210091084335
1728303256573102000,11.97710205078125,-0.13349252464473246,-1.966076931492239,-0.1202427651124075
1728303256583162000,11.987162109375,0.4313338999688625,-1.719523990987241,0.18900175549667328
1728303256593222000,11.997221923828125,0.152876439550519,-1.4006043179295957,-0.023428185327909884
1728303256603282000,12.007281982421874,0.5253828874975442,-1.6035504641592502,-0.1116627326904796
1728303256613341200,12.017341064453126,-0.8484417061865329,-1.6335507578864692,0.20786170132728293
1728303256623401000,12.02740087890625,0.45000177555978293,-1.459849118580669,-0.24070304543301463
1728303256633461000,12.0374609375,-0.06578501607477664,-1.6171081571295856,-0.011563304282724857
1728303256643521000,12.04752099609375,0.48115854584574697,-1.4494386375948787,-0.3619711715377867
1728303256653580800,12.057580810546876,-0.35516543704569337,-1.1940027179323136,0.27533609526110814
1728303256663641000,12.06764111328125,0.12457973487079142,-1.3671952386721968,-0.2364150111165829
1728303256673701000,12.077701171875,-0.4079600386440754,-1.3720815494090317,0.2613282291041687
1728303256683761200,12.08776123046875,-0.004703647646307945,-1.368781192689389,-0.19540316523788495
1728303256693821000,12.097821044921876,0.1010837084710598,-0.9959148253887892,0.16405715599013493
1728303256703881000,12.107880859375,-0.06894786401987076,-1.3376330441012978,-0.1980662652336061
1728303256713941000,12.11794091796875,0.09637480012774467,-1.3791110096544026,0.04893036391828209
1728303256724001000,12.1280009765625,-0.29510932001173495,-1.288819913354516,-0.365572155171819
1728303256734061000,12.13806103515625,0.4793845219105482,-1.2504349453806876,-0.08918346385154872
1728303256744121000,12.14812109375,-0.4866787705719471,-1.3459602890722453,0.05245468385322019
1728303256754180900,12.158180908203125,0.4564718483567238,-1.4740902637705207,-0.32958748980537056
1728303256764241000,12.168240966796875,-0.41267128507494927,-1.1965430500648915,0.48334367133248596
1728303256774301000,12.178301025390626,0.1502700564444065,-1.3920204678490757,-0.24076054777391254
1728303256784361000,12.18836083984375,-0.256352596116066,-1.3504437180966138,0.08316272399099543
1728303256794421000,12.1984208984375,0.23466917209625243,-1.5474768408901989,-0.2695060556670651
1728303256804481000,12.20848095703125,0.27058278152048587,-1.2628513593614101,0.08184751320658251
1728303256814541000,12.218541015625,0.5406675503909587,-1.7388389323100446,-0.7989913004495203
1728303256824600800,12.228600830078125,0.22780045537054538,-1.2773482328779995,0.08715780324283987
1728303256834661000,12.2386611328125,0.16621406002938746,-1.4863006337851286,-0.10983032963154837
1728303256844721200,12.24872119140625,0.7323463065445422,-1.3273045423105359,-0.21510476779071613
1728303256854781000,12.258781005859374,-0.21007424454391002,-1.5611984922505915,0.1710219169688411
1728303256864841000,12.268841064453126,0.8230378003388643,-1.248013271191716,-0.20977628451064229
1728303256874901000,12.27890087890625,0.35606326266825195,-1.1051168853204696,0.1387900830635801
1728303256884960800,12.288960693359375,0.28728374095261094,-1.5312906991124153,-0.3221653769806027
1728303256895021000,12.29902099609375,0.22232056265473366,-1.3340677528351546,-0.049897400585841384
1728303256905081000,12.3090810546875,0.16037643991708755,-1.2733275990597903,-0.20115807550279421
1728303256915141000,12.31914111328125,0.48683951409161086,-1.3048676695749162,-0.3412940019510686
1728303256925201000,12.329200927734375,-0.15217559780478476,-1.3121230475306511,0.048241888463776555
1728303256935261000,12.339260986328124,0.3333183468967676,-1.3497102892555295,-0.1700862800865434
1728303256945321000,12.349321044921876,0.22043255695104597,-1.401201553170383,0.20397570847310126
1728303256955381000,12.359381103515625,0.7672118682205676,-1.2456506337136029,-0.21839569909488782
1728303256965441000,12.36944091796875,0.5880886422574519,-1.1205340154871344,-0.013935476774163543
1728303256975501000,12.3795009765625,0.041319852381944654,-1.3170645955860614,0.12254505070541054
1728303256985560800,12.389560791015626,0.16214871028661726,-1.4745220793165266,-0.27406581959696485
1728303256995620900,12.399620849609375,0.13630933563113212,-1.3790446664199232,0.03711288394508883
1728303257005681200,12.40968115234375,0.8083896817833185,-1.4974457126557825,-0.49203485424499954
1728303257015741200,12.4197412109375,-0.016082535272836686,-1.2476745407566427,0.15354783600606023
1728303257025801000,12.429801025390624,-0.05918284133076667,-1.542214536447823,-0.1736188746594824
1728303257035861000,12.439861083984376,0.04825637364685535,-1.2704986592441796,-0.13269733741274103
1728303257045921000,12.449921142578125,-0.14884031590223312,-1.468848855985701,0.18162127159023655
1728303257055980800,12.459980712890625,0.022027122890949248,-1.3803145402252672,-0.2358170452234335
1728303257066041000,12.470041015625,-0.6245224761635064,-1.2627446841165422,0.19602573584932834
1728303257076101000,12.48010107421875,-0.45179625776112076,-1.6197637862049041,0.005963347117509693
1728303257086161000,12.490160888671875,0.20067337899208068,-1.4537909875854849,-0.15318223583037033
1728303257096221000,12.500220947265625,-0.11633972979187965,-1.4851162463061511,0.21705113435182719
1728303257106281000,12.510281005859374,-0.014091653716564177,-1.268500471164286,-0.2201909667475149
1728303257116341000,12.520341064453126,-0.31880291481018064,-1.4206018346890805,0.1162007414462976
1728303257126401000,12.530401123046875,0.09618483051359653,-1.4593389771014451,-0.2579562501867302
