time,seconds_elapsed,z,y,x
1728303244752605400,0.15660546875,-9.804090963166951,0.008368146661849459,0.2238604673068039
1728303244762665500,0.16666552734375,-9.804109667867422,0.009403632326828665,0.22301079167490823
1728303244772725500,0.1767255859375,-9.804146492746472,0.009654430462588789,0.22136355419084427
1728303244782785500,0.18678564453125,-9.80416928910017,0.010534078824351308,0.22030410826578736
1728303244792845600,0.196845458984375,-9.80418857832253,0.011665928973560221,0.21939535939041524
1728303244802905600,0.206905517578125,-9.804196177107094,0.01212978933386621,0.21904126698942852
1728303244812965600,0.216965576171875,-9.804191500931978,0.012990732995158759,0.21919581823032347
1728303244823025400,0.227025390625,-9.804177472406625,0.013995182488590944,0.21976178155001252
1728303244833085400,0.23708544921875,-9.804182148581743,0.013849525798560353,0.21956291624335572
1728303244843145700,0.247145751953125,-9.804161105793714,0.015039452535758027,0.2204251773621887
1728303244853205500,0.25720556640625,-9.804145908224582,0.015662511770968557,0.22104151916224507
1728303244863265500,0.267265625,-9.804134217786789,0.016123012272053164,0.22152583208046853
1728303244873325600,0.27732568359375,-9.80413304874301,0.016578793215536278,0.22156070246445014
1728303244883385600,0.287385498046875,-9.804126619002222,0.016975818292662734,0.22180590939717365
1728303244893445400,0.2974453125,-9.804140063005685,0.017339728834765263,0.221177000376489
1728303244903505700,0.307505615234375,-9.804098561951518,0.01759670155380736,0.22299816965535282
1728303244913565700,0.317565673828125,-9.804095054820179,0.0171093804028118,0.2231815999308601
1728303244923625500,0.32762548828125,-9.804106160736083,0.01696814530121628,0.22269662942551074
1728303244933685500,0.337685546875,-9.804084533426165,0.0171007712630264,0.22363555424343792
1728303244943745500,0.34774560546875,-9.804068166813254,0.017751113514095775,0.2243240479642525
1728303244953805600,0.3578056640625,-9.804043032371997,0.021849135975539682,0.22504914736840873
1728303244963865600,0.367865478515625,-9.804037187153101,0.033237330286530774,0.22390726559059693
1728303244973925600,0.377925537109375,-9.80400094679594,0.05485969916833564,0.22122262961650266
1728303244983985700,0.387985595703125,-9.80418682475686,0.07723611955414526,0.20575570549136027
1728303244994045400,0.39804541015625,-9.80491513903141,0.06631199452436995,0.17211891842531038
1728303245004104700,0.408104736328125,-9.805091664642095,0.06235925657690968,0.16330719613935799
1728303245014164500,0.41816455078125,-9.805095171773432,0.062084965113596985,0.16320402802582828
1728303245024224500,0.428224609375,-9.805077051594854,0.06186555477583315,0.1643825154869817
1728303245034284500,0.438284423828125,-9.805086403945088,0.0613991382739041,0.16398789014620704
1728303245044344600,0.448344482421875,-9.80508231229186,0.06198947798302397,0.1640047864820808
1728303245054404600,0.458404541015625,-9.805071206375956,0.06258490942579228,0.1644722030644305
1728303245064464600,0.468464599609375,-9.805092249163984,0.06298523385499138,0.16305457308515905
1728303245074524700,0.478524658203125,-9.805117968127131,0.06402697059342172,0.16106511630099266
1728303245084584400,0.48858447265625,-9.80513608830571,0.06452695600481238,0.15976943220095707
1728303245094644500,0.49864453125,-9.80515771561563,0.06477065140046179,0.15834550034506245
1728303245104704500,0.50870458984375,-9.805198632147908,0.06562300761321094,0.15542948503419757
1728303245114764500,0.5187646484375,-9.805240133202075,0.06685749957791995,0.1522413199847564
1728303245124824600,0.528824462890625,-9.805298585391045,0.06738778879602905,0.14819363376284017
1728303245134884600,0.538884521484375,-9.805338332879543,0.06831947102241684,0.14510470957048235
1728303245144944400,0.5489443359375,-9.805366389930247,0.06941840414106845,0.1426843688220717
1728303245155004400,0.55900439453125,-9.805428933772443,0.07005101208933628,0.13798199981739745
1728303245165064400,0.569064453125,-9.805476280045509,0.0707864776238799,0.1341948276951909
1728303245175124700,0.579124755859375,-9.805499076399206,0.0716529536935268,0.13205957836532034
1728303245185184500,0.5891845703125,-9.805523041796684,0.07198635493293404,0.13005663191191852
1728303245195244500,0.59924462890625,-9.80554876075983,0.07248227609056047,0.1278221417249646
1728303245205304600,0.6093046875,-9.80556804998219,0.07279083514965605,0.12616471164044923
1728303245215364400,0.6193642578125,-9.805589677292108,0.0728665261677932,0.1244632780174259
1728303245225424600,0.629424560546875,-9.805584416595101,0.07332607910409569,0.12458109571081585
1728303245235484700,0.639484619140625,-9.805574479722976,0.07342621044374537,0.12532802335429005
1728303245245544400,0.64954443359375,-9.805594353467226,0.07331775423374493,0.123829263563361
1728303245255604500,0.6596044921875,-9.805599029642343,0.07403805416519753,0.12298583500916138
1728303245265664500,0.66966455078125,-9.805590261813999,0.07415422789077274,0.1236217308930587
1728303245275724500,0.679724609375,-9.805597276076673,0.07396157769577112,0.12319521257667801
1728303245285784600,0.68978466796875,-9.805608966514468,0.0740159975970164,0.12224216790185309
1728303245295844600,0.6998447265625,-9.805613642689584,0.07415912326159886,0.12178308075643143
1728303245305904600,0.709904541015625,-9.805619487908482,0.07418118896293453,0.12127673866949043
1728303245315964400,0.71996435546875,-9.805616565299033,0.07431820911371614,0.12145013160817325
1728303245326024400,0.7300244140625,-9.805601367729901,0.07456457595706452,0.12249783229650929
1728303245336084500,0.74008447265625,-9.805612473645805,0.07439886400133837,0.12170439863018691
1728303245346144500,0.75014453125,-9.805615980777144,0.07474481876164209,0.12121213073437101
1728303245356204500,0.76020458984375,-9.805598445120454,0.07544890277723315,0.122194483702071
1728303245366264600,0.7702646484375,-9.805592599901557,0.07557520517117809,0.1225603944050148
1728303245376324600,0.78032470703125,-9.805575648766755,0.07627193699737544,0.12351040687253698
1728303245386384400,0.79038427734375,-9.805556359544395,0.07695744874323718,0.12459446664904243
1728303245396444700,0.800444580078125,-9.805556944066286,0.07758433020361699,0.12417039601807482
1728303245406504700,0.810504638671875,-9.805535901278256,0.07838580104592256,0.12532576746512203
1728303245416564500,0.820564453125,-9.805504921618104,0.07927913315645418,0.12718684862926602
1728303245426624500,0.83062451171875,-9.805503168052434,0.07952838607663289,0.12716956870090215
1728303245436684500,0.8406845703125,-9.805491477614641,0.08039637368335388,0.12751759668728335
1728303245446744300,0.850744384765625,-9.805462836042047,0.08133747219205834,0.12911725956941955
1728303245456804600,0.8608046875,-9.805451730126142,0.08181342827389017,0.12962078864476642
1728303245466865200,0.870865234375,-9.805427764728664,0.08232746047694235,0.1311211284714285
1728303245476925200,0.88092529296875,-9.805409644550085,0.08244395386292598,0.13237961323307826
1728303245486984000,0.89098388671875,-9.805406721940637,0.08257741665001958,0.1325469874229282
1728303245497044000,0.9010439453125,-9.805398538634181,0.08262076260140165,0.13310102284280584
1728303245507104300,0.911104248046875,-9.805371650627254,0.0823902052485384,0.13519499944737182
1728303245517164300,0.921164306640625,-9.80537983393371,0.0816256688831374,0.1350990373927634
1728303245527224000,0.93122412109375,-9.805389770805835,0.08146585694523528,0.1344712882827036
1728303245537284000,0.9412841796875,-9.805396785068512,0.0808977290679235,0.1343075308220461
1728303245547344100,0.95134423828125,-9.805404383853077,0.08030141627574339,0.1341135243535973
1728303245557404200,0.961404052734375,-9.805406721940637,0.0802132904677186,0.1339910761508625
1728303245567464200,0.971464111328125,-9.805413736203313,0.08005401738593354,0.13356490489435383
1728303245577524200,0.981524169921875,-9.80543770160079,0.07987350971987471,0.13188719920678996
1728303245587584000,0.991583984375,-9.805445884907245,0.08022583028888329,0.13107810218045488
1728303245597644000,1.00164404296875,-9.80543594803512,0.0803313638894353,0.1317391964376904
1728303245607704000,1.0117041015625,-9.805430102816224,0.08081244367095641,0.1318961222987622
1728303245617764400,1.021764404296875,-9.8054201659441,0.0817819736897014,0.13201678953636437
1728303245627824000,1.03182421875,-9.80540087672174,0.08269911593408323,0.13288263085177168
1728303245637884200,1.04188427734375,-9.805386848196386,0.08371009220806881,0.1332968285426963
1728303245647944200,1.051944091796875,-9.805358206623792,0.08524023351795039,0.1344266088907607
1728303245658004000,1.06200390625,-9.805307353219389,0.08731261021206155,0.13678513644933699
1728303245668064000,1.07206396484375,-9.805262929555774,0.08914708649707026,0.1387751503559295
1728303245678124300,1.082124267578125,-9.805210322585701,0.09138312018713914,0.14102208903250282
1728303245688184000,1.09218408203125,-9.805147778743505,0.0937483880137559,0.1437787399300374
1728303245698244000,1.102244140625,-9.805102770558,0.09584134170501492,0.1454699078873731
1728303245708304100,1.11230419921875,-9.805037304106355,0.0978968129300978,0.14846350934593938
1728303245718364200,1.1223642578125,-9.804967161479592,0.10029546243650839,0.15148868411970323
1728303245728424200,1.132424072265625,-9.804923322337865,0.10278941641040146,0.1526411238241475
1728303245738484200,1.142484130859375,-9.804864285627007,0.10519286082293838,0.15475814337758345
1728303245748544300,1.152544189453125,-9.804796481087804,0.10729696609587408,0.15758300980627535
1728303245758604000,1.16260400390625,-9.804753226467966,0.10918444207659922,0.15900352586237712
1728303245768664000,1.1726640625,-9.804701788541674,0.11137318429253064,0.1606228706925176
1728303245778724000,1.18272412109375,-9.80465327322483,0.1126407930755522,0.162704170478601
1728303245788784000,1.1927841796875,-9.804612941214442,0.11400558775588869,0.16416587706161662
1728303245798844200,1.20284423828125,-9.804561503288149,0.11556511955703608,0.1661363734169863
1728303245808904200,1.212904296875,-9.804517664146422,0.11648296505431643,0.16809011956695466
1728303245818964200,1.222964111328125,-9.804489607095718,0.11724645110694691,0.16918246311461552
1728303245829024000,1.23302392578125,-9.804438753691315,0.11806985978642479,0.1715376114060171
1728303245839084000,1.243083984375,-9.804414203771948,0.11809321326254867,0.17290818737316876
1728303245849144300,1.253144287109375,-9.804378547936677,0.11842111177635378,0.1746967512903735
1728303245859204000,1.2632041015625,-9.804342892101406,0.11828197730029932,0.17679184213979168
1728303245869264100,1.27326416015625,-9.804329448097944,0.11791193841150961,0.1777853284228593
1728303245879324200,1.28332421875,-9.804322433835267,0.11734155464502982,0.17853658518157897
1728303245889384000,1.293384033203125,-9.804304313656687,0.11646163000534288,0.1800995601819828
1728303245899444200,1.3034443359375,-9.80431834218204,0.11490930426311678,0.18035421079648659
1728303245909504300,1.313504150390625,-9.804331786185502,0.113873650205601,0.18025279624862595
1728303245919564300,1.323564208984375,-9.804337046882509,0.11301436649514361,0.18050463385153562
1728303245929624000,1.3336240234375,-9.804363934889436,0.11161759664081036,0.17993045069277286
1728303245939684000,1.34368408203125,-9.804385562199354,0.11056542983991094,0.17940425312789157
1728303245949744000,1.353744140625,-9.804393160983919,0.1100645493793767,0.179291422136873
1728303245959804200,1.36380419921875,-9.804417126381397,0.10926407405091448,0.17847004101769998
1728303245969864200,1.3738642578125,-9.804435831081866,0.10877150476099923,0.17773020070213824
1728303245979924200,1.38392431640625,-9.804417710903286,0.1086535226708278,0.17879176551904527
1728303245989984000,1.39398388671875,-9.804452782216668,0.10782462496547959,0.17739229225097222
1728303246000044000,1.4040439453125,-9.804488438051939,0.10778694156990386,0.17543489283919333
1728303246010104000,1.41410400390625,-9.804473240482807,0.10848492463827132,0.1758479306194931
1728303246020164000,1.4241640625,-9.804486099964379,0.10851282642534933,0.17511736958893015
1728303246030224100,1.43422412109375,-9.804520002233982,0.10871028522620908,0.17308157117869705
1728303246040284200,1.4442841796875,-9.80453987597823,0.10980714055220596,0.17124096654700113
1728303246050344200,1.45434423828125,-9.80458020798862,0.11044457993921823,0.16848843470215796
1728303246060404000,1.464404052734375,-9.804617617389559,0.11093629071260802,0.16597579429410397
1728303246070464300,1.47446435546875,-9.804648012527823,0.11175156175140291,0.16363823645832015
1728303246080524300,1.484524169921875,-9.804678992187977,0.11275735952677204,0.16104230168098582
1728303246090584000,1.494583984375,-9.804719908720255,0.1131272066193167,0.158298208870925
1728303246100644000,1.50464404296875,-9.804758487164973,0.1135010175009258,0.15558949790149926
1728303246110704000,1.5147041015625,-9.804777776387333,0.1143849150628317,0.1537256219920702
1728303246120764000,1.524763916015625,-9.80480115726292,0.11518281484171747,0.15162953562880865
1728303246130824200,1.53482421875,-9.804826876226066,0.11581875639138743,0.14947686937325633
1728303246140884200,1.54488427734375,-9.804861947539449,0.11663427402535453,0.14652034852206705
1728303246150944300,1.5549443359375,-9.804854348754882,0.11810651113553904,0.1458128669729922
1728303246161004000,1.565004150390625,-9.804868961802125,0.1185550677537918,0.14447010146137326
1728303246171064000,1.57506396484375,-9.80489584980905,0.11890768971689976,0.14233810353451407
1728303246181124000,1.5851240234375,-9.804898187896608,0.12034983308291994,0.14094965398395434
1728303246191184100,1.59518408203125,-9.804910462856292,0.12072801874554716,0.13979494925718755
1728303246201244200,1.605244140625,-9.804949625822902,0.12048404478868469,0.13722169210254215
1728303246211304200,1.61530419921875,-9.804960147216915,0.12141125176935456,0.13563955574394204
1728303246221364000,1.625364013671875,-9.804964823392034,0.12186674958504735,0.13490991716198622
1728303246231424000,1.635424072265625,-9.805011000621318,0.12115827252212912,0.13214173109028488
1728303246241484300,1.645484375,-9.805019768449663,0.1219801285653375,0.13074572842093185
1728303246251544300,1.65554443359375,-9.805031458887457,0.122388216175884,0.1294932076091878
1728303246261604000,1.66560400390625,-9.805053670719266,0.122402253834391,0.12778602009881287
1728303246271664000,1.6756640625,-9.805068868288398,0.12274728614608757,0.12623846186324952
1728303246281724200,1.68572412109375,-9.805057177850603,0.1235584837979637,0.12637598890410737
1728303246291784000,1.695783935546875,-9.805068868288398,0.12349210403086616,0.1255485342371743
1728303246301844200,1.70584423828125,-9.805067699244617,0.1242444841675926,0.12489403411750681
1728303246311904300,1.715904296875,-9.805049579066038,0.12520796803804113,0.1253400060530286
1728303246321964000,1.725964111328125,-9.80504548741281,0.1257864529125858,0.12509277156000026
1728303246332024000,1.736024169921875,-9.805034966018795,0.127116660336731,0.12453721090331672
1728303246342084000,1.746083984375,-9.80500690896809,0.12877463841051795,0.12505020192675292
1728303246352144100,1.75614404296875,-9.80498878878951,0.12999011514750308,0.12524440019144675
1728303246362204200,1.7662041015625,-9.804975344786047,0.1317020792976953,0.12446999088600277
1728303246372264200,1.77626416015625,-9.80493618181944,0.1339927475181408,0.12510550317740998
1728303246382324200,1.78632421875,-9.804902864071726,0.13597669701012782,0.12558149579185993
1728303246392384000,1.796384033203125,-9.804873637977241,0.13819515851088798,0.12543698188778943
1728303246402444000,1.806444091796875,-9.80482103100717,0.14059555244981312,0.12688961011520586
1728303246412504300,1.81650439453125,-9.804773100212216,0.14266487867031247,0.1282571904076729
1728303246422564000,1.826564208984375,-9.804732768201827,0.14488754142215474,0.12885638927668333
1728303246432624000,1.8366240234375,-9.80466963983774,0.1471466545937117,0.13109954682728275
1728303246442684200,1.84668408203125,-9.804619955477119,0.14871375777996143,0.13304047916145062
1728303246452744200,1.856744140625,-9.804574362769722,0.1502531418422237,0.13464601466194726
1728303246462804000,1.866803955078125,-9.80452292484343,0.15167902819318696,0.1367661120884586
1728303246472864000,1.876864013671875,-9.804481423789262,0.1526106921532657,0.1386972719472833
1728303246482924000,1.886924072265625,-9.80445044412911,0.1535766602417454,0.13982168200048617
1728303246492984000,1.896984130859375,-9.804395499071479,0.154509137052577,0.1426142627279274
1728303246503043800,1.9070439453125,-9.80435692062676,0.1543823323351331,0.14539215734289027
1728303246513104000,1.917103759765625,-9.804324771922825,0.15472296246634795,0.14718110485258512
1728303246523164200,1.9271640625,-9.804287362521887,0.15474146623741836,0.1496304251003079
1728303246533224200,1.93722412109375,-9.804247615033388,0.15440050731264054,0.15257192191230132
1728303246543284000,1.947283935546875,-9.804213712763787,0.15418629830637945,0.15493771946188062
1728303246553344000,1.957343994140625,-9.804179225972295,0.15383026967663316,0.15743386539286003
1728303246563404000,1.967404052734375,-9.804155845096707,0.15326211439985782,0.15943926866482944
1728303246573463800,1.9774638671875,-9.804149415355921,0.15271682854201643,0.1603722934649326
1728303246583524000,1.987524169921875,-9.80411200595498,0.1526492614648305,0.1627109655455686
1728303246593584000,1.997584228515625,-9.804077519163489,0.15229884059196336,0.16509133960977196
1728303246603644000,2.007643798828125,-9.80407342751026,0.15195880411579274,0.16563870782684534
1728303246613704000,2.017703857421875,-9.804068166813254,0.15198265991541557,0.16594189202450216
1728303246623764000,2.027763916015625,-9.80405589185357,0.15195122359753585,0.16666733848853035
1728303246633824000,2.037823974609375,-9.804044201415776,0.1520424912107177,0.16728121433686463
1728303246643884000,2.047884033203125,-9.804035433587432,0.15236617020713164,0.1674999168551527
1728303246653944000,2.057944091796875,-9.804030172890425,0.15274177118702792,0.16748386076949537
1728303246664004000,2.068004150390625,-9.804026665759086,0.15331216408666223,0.16715433655418455
1728303246674064000,2.07806396484375,-9.804022574105858,0.1543135048826225,0.1664570567387156
1728303246684124000,2.0881240234375,-9.80402082054019,0.1549244398551993,0.1660172588156536
1728303246694184200,2.09818408203125,-9.804010883668065,0.15597824149075895,0.1655915990157984
1728303246704244000,2.108243896484375,-9.803986918270587,0.15714078246410934,0.16593285020152107
1728303246714304000,2.118303955078125,-9.80396470643878,0.15818525001574307,0.16623418950196356
1728303246724364000,2.128364013671875,-9.803955354088544,0.15949867070186882,0.16552580377059056
1728303246734424000,2.138424072265625,-9.803951262435316,0.16055260020159184,0.16475293796826154
1728303246744483800,2.14848388671875,-9.803921451818942,0.16143953910395503,0.16568324108831584
1728303246754544000,2.158544189453125,-9.803930219647288,0.1622656877297908,0.16432691284222528
1728303246764604200,2.168604248046875,-9.803934895822405,0.16351981597673146,0.16279731038846074
1728303246774664000,2.178663818359375,-9.803930804169177,0.16427655262816696,0.16227335957959294
1728303246784724000,2.188723876953125,-9.803940741041302,0.1650321202358231,0.16092649328159167
1728303246794784000,2.198783935546875,-9.803940156519412,0.1658600772262551,0.1600848182930611
1728303246804843800,2.20884375,-9.803936649388074,0.16637253852672873,0.1597860728085041
1728303246814904000,2.218904052734375,-9.803977565920352,0.16641076991157605,0.15721463315160944
1728303246824964000,2.228964111328125,-9.803998024186491,0.16696350842351093,0.1553322900037281
1728303246835024100,2.239024169921875,-9.803989840880035,0.16728225551648065,0.1555280317715369
1728303246845084000,2.249083984375,-9.804007376536726,0.16731469648135824,0.1543672260975465
1728303246855144000,2.25914404296875,-9.80401848245263,0.16761245558522642,0.15333127064593136
1728303246865204000,2.269203857421875,-9.804006792014837,0.1678969533487223,0.15376350631704552
1728303246875264000,2.279263916015625,-9.804030172890425,0.16751449336977675,0.15269587708553298
1728303246885324000,2.289323974609375,-9.804046539503336,0.16739656607853248,0.15178615096262654
1728303246895384000,2.299384033203125,-9.80401906697452,0.1676590712059289,0.15325769395306704
1728303246905443800,2.30944384765625,-9.804030172890425,0.16726382481064647,0.15296065636840647
1728303246915503900,2.31950390625,-9.804058229941129,0.16701494634980335,0.15144372159997
1728303246925564200,2.329564208984375,-9.804051800200343,0.16719187381928785,0.1516491627778858
1728303246935624200,2.339624267578125,-9.80405706089735,0.1667935038851574,0.15176363773671908
1728303246945684000,2.34968408203125,-9.804080441772937,0.1666578948067501,0.15037369948197155
1728303246955744000,2.359743896484375,-9.804065244203805,0.16701805162234232,0.15098701820787974
1728303246965804000,2.369803955078125,-9.804079857251047,0.16646938649732618,0.15064886316154152
1728303246975863800,2.37986376953125,-9.804107329779862,0.16633238917943088,0.1489969586355146
1728303246985924000,2.389924072265625,-9.804109083345532,0.16635434528291224,0.14885938592888415
1728303246995984100,2.399984130859375,-9.804105576214194,0.16587237045224756,0.149610350426659
1728303247006044000,2.4100439453125,-9.80413304874301,0.16532445424590259,0.14843124191099777
1728303247016104000,2.42010400390625,-9.804154091531037,0.16498945013787597,0.1473776777374558
1728303247026164000,2.4301640625,-9.80414999987781,0.16450650719283147,0.14822273199316113
1728303247036224000,2.44022412109375,-9.80416812005639,0.1637360890759155,0.14786642936877906
1728303247046284000,2.450283935546875,-9.804172211709618,0.1632283587494865,0.14812919022450222
1728303247056344000,2.460343994140625,-9.804162859359383,0.16241570892604068,0.14964247173112816
1728303247066404000,2.470404052734375,-9.80418857832253,0.1610203821101226,0.1494588313930668
1728303247076463900,2.4804638671875,-9.80420436041355,0.16020283691585063,0.14930148540688679
1728303247086524000,2.49052392578125,-9.804181564059853,0.15924215692384167,0.15182628204361534
1728303247096584200,2.500584228515625,-9.804200853282213,0.157627250806801,0.15226832672269083
1728303247106644000,2.51064404296875,-9.804233586508035,0.1566148771601729,0.15119901699074542
1728303247116704000,2.5207041015625,-9.804237093639372,0.15565640739155934,0.15194218177455476
1728303247126764000,2.530763916015625,-9.804249953120946,0.15426681619668378,0.1525426227525808
1728303247136823800,2.54082373046875,-9.804285024434327,0.1530401696117129,0.15151884179594927
1728303247146883800,2.5508837890625,-9.804301975569128,0.1522580245243851,0.15119714469406753
1728303247156944100,2.560944091796875,-9.804328863576053,0.15112458178135565,0.15059982725488952
1728303247167004200,2.571004150390625,-9.80437504080534,0.14999344059326686,0.14873414298086426
1728303247177064000,2.58106396484375,-9.804387900286912,0.1493691712150816,0.14851140360827556
1728303247187124000,2.5911240234375,-9.80441069664061,0.14824519042014145,0.1481014893668238
1728303247197184000,2.60118408203125,-9.804444598910212,0.14767948282877913,0.1464401320258621
1728303247207244000,2.611244140625,-9.8044679797858,0.14717980794464236,0.14535150567209348
1728303247217304000,2.621303955078125,-9.804470902395249,0.1468231673935428,0.1455183958047535
1728303247227364000,2.631364013671875,-9.804501882055401,0.14630098841665312,0.14396884654150344
1728303247237423900,2.641423828125,-9.80452409388721,0.14642725427797995,0.14231470439261756
1728303247247484000,2.65148388671875,-9.804525262930989,0.14665922726979477,0.14199238623622804
1728303247257544000,2.6615439453125,-9.804538122412561,0.14682971586533822,0.14091321269739418
1728303247267604200,2.671604248046875,-9.804550397372246,0.1476197245987132,0.139246311531635
1728303247277664000,2.6816640625,-9.804546890240907,0.14836912732706403,0.138667890589172
1728303247287724000,2.69172412109375,-9.804555658069253,0.14941476392247713,0.1369180786466226
1728303247297784000,2.7017841796875,-9.804550397372246,0.15118116167364642,0.1353480437177699
1728303247307843800,2.71184375,-9.804545136675237,0.15212852552635595,0.13464816095326096
1728303247317904000,2.72190380859375,-9.804545136675237,0.15346413977798073,0.13314706307477317
1728303247327964200,2.731964111328125,-9.804532861715554,0.1554452671252191,0.13175279570478013
1728303247338024000,2.74202392578125,-9.804515910580754,0.15685482339588924,0.13135546695026568
1728303247348084000,2.752083984375,-9.804518248668312,0.15828903918378054,0.12943548607258126
1728303247358144000,2.76214404296875,-9.804511818927526,0.16007727430742233,0.1277182794916909
1728303247368204000,2.7722041015625,-9.804493698748946,0.16156135711902753,0.12720478614475578
1728303247378264000,2.78226416015625,-9.804490776139497,0.16304761362140996,0.12552993913455865
1728303247388324000,2.792323974609375,-9.804473825004695,0.16497852688506245,0.12431375914467498
1728303247398384000,2.802384033203125,-9.804444014388322,0.1665401319122873,0.12461992075070738
1728303247408444000,2.81244384765625,-9.80445044412911,0.1677920864684507,0.12240113958953878
1728303247418504000,2.82250390625,-9.804445183432101,0.16952773288832976,0.1203892609110102
1728303247428564000,2.83256396484375,-9.804418295425176,0.17092050242098047,0.12064292514482512
1728303247438624000,2.8426240234375,-9.804420048990846,0.171960056335479,0.11899680190561339
1728303247448684000,2.85268408203125,-9.804420633512734,0.17346923705572262,0.11672701207641512
1728303247458744000,2.862744140625,-9.804407189509272,0.1746533322737552,0.11612789540579542
1728303247468804000,2.87280419921875,-9.804419464468955,0.1753233952887356,0.11404468679041602
1728303247478864000,2.88286376953125,-9.804427063253522,0.1761846882931888,0.1120547733485233
1728303247488924000,2.892923828125,-9.804420048990846,0.17682024625036866,0.1116563577486202
1728303247498984200,2.902984130859375,-9.804427063253522,0.1773377307858318,0.11018538101376034
1728303247509044000,2.9130439453125,-9.804442845344543,0.17782673814548178,0.1079680702904705
1728303247519104000,2.92310400390625,-9.804437584647536,0.1784510257899761,0.1074488047898747
1728303247529164000,2.9331640625,-9.80444985960722,0.1788501081101596,0.10563391912132501
1728303247539223800,2.943223876953125,-9.804455704826117,0.17950009645149112,0.10399266385347582
1728303247549284000,2.9532841796875,-9.804449275085329,0.17977471214178947,0.10411526731983758
1728303247559344000,2.96334423828125,-9.804465057176351,0.17952687486056237,0.10306342931250109
1728303247569404000,2.97340380859375,-9.804482592833041,0.1796155760573223,0.10122620394797995
1728303247579464000,2.9834638671875,-9.804479085701704,0.1797231828839518,0.10134209454576484
1728303247589524000,2.99352392578125,-9.804499543967843,0.17927536605121566,0.10019295191010459
1728303247599584000,3.003583984375,-9.80452350936532,0.1793744607778266,0.09761265309331937
1728303247609644000,3.01364404296875,-9.80452409388721,0.1796609678353183,0.09701792033687233
1728303247619704000,3.0237041015625,-9.804529939106105,0.1795888889797963,0.09659133808840997
1728303247629764000,3.03376416015625,-9.804538122412561,0.17987185237333178,0.09521267014634795
1728303247639824000,3.043823974609375,-9.804531108149886,0.18058003717530519,0.09460600949008949
1728303247649884000,3.0538837890625,-9.804529939106105,0.18092161715459076,0.09405438522300683
1728303247659944000,3.06394384765625,-9.804532277193665,0.18184234872870148,0.09200388243398629
1728303247670004000,3.07400390625,-9.804505973708629,0.1832286154553294,0.092063741128752
1728303247680064000,3.08406396484375,-9.804489022573827,0.18421903299847617,0.0919045593785122
1728303247690124000,3.0941240234375,-9.804479670223593,0.18570064985835924,0.08986416699155234
1728303247700184000,3.10418408203125,-9.804460381001233,0.18737404469698665,0.08850210312441922
1728303247710243800,3.114243896484375,-9.804432908472418,0.1888022143365815,0.08848522505485452
1728303247720304000,3.12430419921875,-9.80441011211872,0.19053280098885297,0.08732436458193696
1728303247730364200,3.1343642578125,-9.804376794371008,0.19255172132952136,0.0866209746860899
1728303247740424000,3.144423828125,-9.804358089670538,0.1939907228903845,0.08550449221101589
1728303247750484000,3.15448388671875,-9.804342892101406,0.1959356829456985,0.08281035775621422
1728303247760544000,3.1645439453125,-9.804314835050702,0.19793980757603422,0.08131986347013152
1728303247770603800,3.174603759765625,-9.804290869653224,0.19929392559872938,0.0808783576471731
1728303247780664000,3.1846640625,-9.804286193478108,0.200560858528316,0.078326344209956
1728303247790724000,3.19472412109375,-9.804266319733857,0.20224619953306391,0.07644225206298287
1728303247800784100,3.2047841796875,-9.804253460252285,0.20349548720810562,0.07472547017377801
1728303247810844000,3.214843994140625,-9.80425930547118,0.20442853027451782,0.07138039296299685
1728303247820904000,3.224904052734375,-9.80422598772347,0.20631542173335327,0.0705384028806351
1728303247830964000,3.2349638671875,-9.804219557982682,0.207075354988873,0.06917607415202073
1728303247841024000,3.24502392578125,-9.804226572245359,0.20771140613639727,0.06616819300635252
1728303247851084000,3.255083984375,-9.80422364963591,0.20856921027582137,0.06390559553634374
1728303247861144000,3.26514404296875,-9.804231248420477,0.20886066750306634,0.06177573020106647
1728303247871203800,3.275203857421875,-9.80424293885827,0.20903617020044474,0.059219643376930614
1728303247881263900,3.285263916015625,-9.804246445989609,0.2094789637981914,0.0570019810271915
1728303247891324200,3.29532421875,-9.804258136427402,0.20941220043860376,0.05527607055003755
1728303247901384200,3.30538427734375,-9.804268073299527,0.20962379736267028,0.05260761395918671
1728303247911444000,3.31544384765625,-9.80426105903685,0.21050441612210125,0.0503312071595341
1728303247921504000,3.32550390625,-9.804267488777636,0.21060159288626162,0.04873363120320719
1728303247931564000,3.33556396484375,-9.804257551905513,0.21151353836571796,0.046696179692004805
1728303247941623800,3.345623779296875,-9.804238262683153,0.21284854982914403,0.044650371344410814
1728303247951684000,3.35568408203125,-9.804234171029925,0.21333025066517292,0.043202264028484934
1728303247961744100,3.365744140625,-9.804234171029925,0.21373702310146764,0.041142468254733826
1728303247971804000,3.375803955078125,-9.804214881807566,0.21495151345776392,0.03939773891267832
1728303247981864000,3.385864013671875,-9.80420436041355,0.21545500600049272,0.03922639636718668
1728303247991924000,3.395924072265625,-9.804200268760322,0.215782959313225,0.03845089108319953
1728303248001984000,3.40598388671875,-9.804203191369771,0.2158821819039993,0.03710531484327512
1728303248012044000,3.4160439453125,-9.804217804417014,0.21528670022888108,0.03667176171462051
1728303248022104000,3.42610400390625,-9.804234755551814,0.21459449844732878,0.03625756174040725
1728303248032164000,3.4361640625,-9.80424293885827,0.2142028322486207,0.036320219747035296
1728303248042223900,3.446223876953125,-9.804263981646299,0.21323740301625801,0.03635887582356809
1728303248052284000,3.456283935546875,-9.804280932781099,0.21256028920598327,0.03580611904532416
1728303248062344200,3.46634423828125,-9.804294961306452,0.21182919845245776,0.03626642775016371
1728303248072404000,3.476404052734375,-9.80431658861637,0.21065683020483703,0.03727398822435643
1728303248082464000,3.486464111328125,-9.80433587783873,0.20968506256323308,0.037628701679850926
1728303248092524000,3.49652392578125,-9.804350490885973,0.20885082196248694,0.03843973493494559
1728303248102583800,3.506583740234375,-9.804372118195891,0.20773851333903148,0.038905818076734426
1728303248112643800,3.516643798828125,-9.804381470546126,0.2073164337357506,0.03881261880137026
1728303248122704100,3.5267041015625,-9.804386146721244,0.206899651362095,0.03990676614705007
1728303248132764200,3.53676416015625,-9.804394914549588,0.20614978284286334,0.04155079332729801
1728303248142824000,3.546823974609375,-9.804407189509272,0.20542552368892356,0.04227022104249335
1728303248152884000,3.556884033203125,-9.804408943074941,0.205063156649936,0.04362728907410055
1728303248162944000,3.566944091796875,-9.804422387078404,0.2041799258083105,0.04470142567821313
1728303248173004000,3.577004150390625,-9.804440507256984,0.20322594955172388,0.04501823197584599
1728303248183064000,3.58706396484375,-9.80444693699777,0.20265874412301926,0.046216839776420965
1728303248193124000,3.5971240234375,-9.804462134566903,0.20168328668698668,0.047222212860104626
1728303248203183900,3.607183837890625,-9.804473825004695,0.20104517144653944,0.04747504141028039
1728303248213244000,3.617243896484375,-9.8044849309206,0.2003991103616543,0.047952408564486536
1728303248223304000,3.627303955078125,-9.80450480466485,0.19930950676035133,0.04846716685332358
1728303248233364200,3.6373642578125,-9.804520002233982,0.19842925332710146,0.048928587519726716
1728303248243424000,3.647424072265625,-9.804528770062326,0.1978608240556903,0.04948698858746793
1728303248253484000,3.657484130859375,-9.804547474762797,0.1969473624725826,0.049437386425235305
1728303248263544000,3.6675439453125,-9.804567933028936,0.1958761713108048,0.04968125991739798
1728303248273603800,3.677603759765625,-9.804584299641848,0.19485464624334126,0.05042466672980226
1728303248283664000,3.687663818359375,-9.80461586382389,0.19324669959004967,0.05049113782844506
1728303248293724200,3.69772412109375,-9.80463281495869,0.19234956808723508,0.050616106781829144
1728303248303784000,3.707783935546875,-9.80465035061538,0.1913952813033946,0.05081893131097313
1728303248313844000,3.717843994140625,-9.804676654100417,0.1900744810284115,0.05069027712973766
1728303248323904000,3.727904052734375,-9.804697696888447,0.18920237436899914,0.049852100139390676
1728303248333964000,3.737964111328125,-9.804713478979467,0.18838482917472718,0.04993824405288323
1728303248344024000,3.748024169921875,-9.804739782464504,0.1871657722411677,0.0493417120649945
1728303248354084000,3.758083984375,-9.804761409774422,0.1863092102107592,0.048247514486964786
1728303248364144000,3.76814404296875,-9.804779529953002,0.18549544614246113,0.04765453072960954
1728303248374204000,3.778203857421875,-9.804808756047487,0.184246012336947,0.04649552885363809
1728303248384264000,3.788263916015625,-9.804836813098191,0.18315684712706132,0.04481728430995718
1728303248394324000,3.798323974609375,-9.80485960945189,0.18225913110235706,0.0435810387795791
1728303248404384000,3.808384033203125,-9.804887081980704,0.18112539609838277,0.04198675532545894
1728303248414444000,3.818444091796875,-9.804911047378182,0.18014518942199648,0.04060169874180574
1728303248424504000,3.828504150390625,-9.804926829469203,0.1794666873722337,0.039754557560291136
1728303248434564000,3.838564208984375,-9.804957809129357,0.1782045402156189,0.037785011052992194
1728303248444624000,3.848623779296875,-9.804984697136282,0.17726285718502477,0.03515703031971352
1728303248454684000,3.858683837890625,-9.805005739924312,0.176456125645712,0.03332575063878903
1728303248464744200,3.868744140625,-9.805034966018795,0.17528046946246176,0.030747449699556454
1728303248474804200,3.87880419921875,-9.805057762372494,0.17441950525157152,0.02836700257011689
1728303248484864000,3.888864013671875,-9.805076467072963,0.17358270736755801,0.026970703073241745
1728303248494924000,3.898924072265625,-9.805105108645558,0.17235367702925578,0.024386963340488725
1728303248504984000,3.908984130859375,-9.805132581174373,0.17109658964024857,0.02210250109854387
1728303248515044000,3.919044189453125,-9.805161222746968,0.1697515682394616,0.019472789632482453
1728303248525103000,3.92910302734375,-9.805188110753893,0.16848717432683333,0.016792914315185044
1728303248535163100,3.9391630859375,-9.805209738063812,0.1674001462751068,0.015133359630597988
1728303248545223000,3.949222900390625,-9.805236041548847,0.16600056340917943,0.01300664180869935
1728303248555283000,3.959282958984375,-9.805264683121441,0.16450192234925926,0.010201383121131221
1728303248565343200,3.96934326171875,-9.805290402084589,0.16310073204813524,0.008192562336902482
1728303248575403000,3.979403076171875,-9.805310275828838,0.16199350145859642,0.006151821177604142
1728303248585463000,3.989463134765625,-9.805333656704425,0.16060078672487288,0.004611652520285861
1728303248595523000,3.999523193359375,-9.80536054471135,0.1590034162645228,0.0018649594725902714
1728303248605582800,4.009582763671875,-9.805382756543159,0.15765295150363817,-0.0009956930101772741
1728303248615643100,4.01964306640625,-9.805410813593864,0.15584442251063882,-0.0034636760742941986
1728303248625703200,4.029703125,-9.805433609947562,0.1543307665446773,-0.0061003067611425646
1728303248635763000,4.039762939453125,-9.805456406301259,0.15280385837149804,-0.00780206232786295
1728303248645823000,4.049822998046875,-9.805478618133067,0.15126068405010737,-0.009715114566194824
1728303248655883000,4.059883056640625,-9.80549440022409,0.15005752793857827,-0.011975937920936848
1728303248665943000,4.069943115234375,-9.805520703709124,0.14822096016118302,-0.013302318553335498
1728303248676003000,4.080003173828125,-9.805544669106602,0.1464581882723607,-0.014939411386009304
1728303248686063000,4.09006298828125,-9.80556921902597,0.1447056455166079,-0.01611175908403238
1728303248696123100,4.100123046875,-9.805594937989115,0.14276445745411329,-0.01774505480771186
1728303248706183000,4.110182861328125,-9.805614811733365,0.14120885290941224,-0.01900906626949436
1728303248716243000,4.120242919921875,-9.805637608087062,0.13952595045692287,-0.019801236135559154
1728303248726303000,4.130302978515625,-9.805656312787532,0.13804827911979517,-0.020786114420485682
1728303248736363000,4.140363037109375,-9.805677355575561,0.13639589053657836,-0.021750554988870862
1728303248746423000,4.150423095703125,-9.80569606027603,0.1347115633119829,-0.023647349070501512
1728303248756483000,4.160483154296875,-9.805710673323274,0.13347248650370164,-0.024662784607184584
1728303248766543000,4.170543212890625,-9.805725870892404,0.13222213024958035,-0.025292084070225245
1728303248776603000,4.180602783203125,-9.805740483939648,0.1310905598032288,-0.025662618432648013
1728303248786663200,4.1906630859375,-9.80575509698689,0.12997488104575314,-0.025646808942162896
1728303248796723200,4.20072314453125,-9.805767371946573,0.12879620178835466,-0.026918185151426587
1728303248806783000,4.210782958984375,-9.805784323081374,0.12749410621384158,-0.02698987128130393
1728303248816843000,4.220843017578125,-9.805796598041058,0.1265971208414994,-0.026637461664038707
1728303248826903000,4.230903076171875,-9.805815887263417,0.1252040042489767,-0.02610276113229338
1728303248836962800,4.240962890625,-9.805832838398217,0.123865476521058,-0.026137905510910785
1728303248847023000,4.251023193359375,-9.805852127620577,0.12223982068113982,-0.026585857057676184
1728303248857083100,4.261083251953125,-9.805870247799158,0.12086829486591741,-0.02624169696223689
1728303248867143200,4.27114306640625,-9.805892459630966,0.11895426880498416,-0.02652700985977426
1728303248877203000,4.281202880859375,-9.805918178594112,0.11676369995814748,-0.026781301997962872
1728303248887263000,4.291262939453125,-9.8059415594697,0.11487529239566065,-0.02652734093662584
1728303248897323000,4.301322998046875,-9.805970201042294,0.11222275945972651,-0.02714131496637128
1728303248907383000,4.311383056640625,-9.80599650452733,0.10978380534239113,-0.02760164422080852
1728303248917443000,4.321443115234375,-9.806025146099925,0.10695134926228783,-0.02851276314978022
1728303248927503000,4.331503173828125,-9.806049111497401,0.10474283376680686,-0.028532093471335247
1728303248937563000,4.34156298828125,-9.806074245938659,0.10230932300956919,-0.028727967669884672
1728303248947623000,4.351622802734375,-9.806094119682907,0.10006683217925019,-0.0297497393325204
1728303248957683200,4.36168310546875,-9.80612568386495,0.09667346341391093,-0.03060465739511419
1728303248967743200,4.3717431640625,-9.806158417090773,0.09314870508755557,-0.03097495201223064
1728303248977803000,4.381802978515625,-9.806188227707146,0.08983124196948483,-0.03148877643601736
1728303248987863000,4.391863037109375,-9.806215115714073,0.08659117320287041,-0.03216673049650853
1728303248997923000,4.401923095703125,-9.806232651370763,0.08397467969469725,-0.03374948334303917
1728303249007982800,4.41198291015625,-9.806246095374226,0.08175845581679604,-0.03519259710672777
1728303249018043100,4.422043212890625,-9.806258370333909,0.07974221149040385,-0.03636830123903928
1728303249028103200,4.432103271484375,-9.806270645293592,0.07767757057817652,-0.037564237591915295
1728303249038163000,4.442162841796875,-9.806281166687608,0.07566028963874559,-0.03880122519109864
1728303249048223000,4.452222900390625,-9.806289349994064,0.07356629476787056,-0.04069284762397874
1728303249058283000,4.462282958984375,-9.806305132085084,0.07059937125367578,-0.042198913938528856
1728303249068343000,4.472343017578125,-9.806316822522879,0.06764522958924062,-0.04424480448451359
1728303249078403000,4.482403076171875,-9.806327928438781,0.06483591235612984,-0.04601259047517087
1728303249088463000,4.492463134765625,-9.806333773657679,0.062210281126853076,-0.04824239992043003
1728303249098523100,4.502523193359375,-9.806345464095473,0.06005359171673189,-0.048696409031935034
1728303249108583000,4.5125830078125,-9.806356570011376,0.05880827239733189,-0.047863648002222176
1728303249118643000,4.522642822265625,-9.806372936624287,0.0587580217811279,-0.04453081378508359
1728303249128703200,4.532703125,-9.806379950886964,0.056675680815428495,-0.045687226411746815
1728303249138763000,4.542762939453125,-9.806399824631214,0.05431115734090563,-0.044207824341836385
1728303249148823000,4.552822998046875,-9.806409761503339,0.05193279713727533,-0.04485262961797416
1728303249158883000,4.562883056640625,-9.806418529331683,0.049293817802658305,-0.04589035233499016
1728303249168942800,4.57294287109375,-9.806422620984911,0.04659872893320862,-0.04785514046878088
1728303249179003000,4.5830029296875,-9.806429050725697,0.043785548375733195,-0.04913120655289385
1728303249189063200,4.593063232421875,-9.806435480466485,0.04072469950038939,-0.050523318498418665
1728303249199123200,4.603123291015625,-9.80644366377294,0.037289455221546815,-0.051502995451842434
1728303249209183000,4.613182861328125,-9.806448339948057,0.033722449205641165,-0.05311918477709405
1728303249219243000,4.623242919921875,-9.80646236847341,0.03018887738516787,-0.05262705387859605
1728303249229303000,4.633302978515625,-9.806531342056394,0.030400179765000937,-0.03752581441082293
1728303249239363000,4.643363037109375,-9.806571089544892,0.030639381648623384,-0.024720766438695134
1728303249249423000,4.653423095703125,-9.806574012154341,0.028783449300343635,-0.025723091332055626
1728303249259483100,4.663483154296875,-9.80657342763245,0.027044380230805836,-0.02769841455959249
1728303249269543000,4.67354296875,-9.806574012154341,0.024906998309353365,-0.02944783377649728
1728303249279603000,4.68360302734375,-9.80657342763245,0.02297068050150992,-0.03127106029841816
1728303249289663000,4.6936630859375,-9.806571089544892,0.020585077706340233,-0.033593116887682115
1728303249299723300,4.70372314453125,-9.806562906238437,0.018247941137308953,-0.03703927528618369
1728303249309783000,4.713782958984375,-9.806556476497649,0.015613618569856044,-0.039850336951809
1728303249319843000,4.723843017578125,-9.806550631278753,0.013226827322953614,-0.04211446422520093
1728303249329903000,4.733903076171875,-9.806541278928517,0.010708571166510228,-0.04490249207511078
1728303249339963000,4.743962890625,-9.806530173012614,0.008361765440946328,-0.047753150532185096
1728303249350023000,4.75402294921875,-9.80651906709671,0.006180041483446257,-0.05033081900046672
1728303249360083200,4.764083251953125,-9.806505623093248,0.004293266472331015,-0.05301825428642332
1728303249370143000,4.77414306640625,-9.806490425524116,0.0024108065913183963,-0.05584809828433208
1728303249380203000,4.784203125,-9.806472305345535,0.0005330105057177206,-0.05906488207348157
1728303249390263000,4.794262939453125,-9.806451847079396,-0.001031969543192099,-0.062350739910313854
1728303249400323000,4.804322998046875,-9.806433726900815,-0.0031199532286278553,-0.06503711118376813
1728303249410383000,4.814383056640625,-9.806417360287904,-0.006143462057923898,-0.06726218508840538
1728303249420443100,4.824443115234375,-9.806400409153103,-0.009043809442198835,-0.06938900908322539
1728303249430503200,4.834503173828125,-9.806379366365075,-0.011531923905416623,-0.07195084979471285
1728303249440563000,4.84456298828125,-9.806360661664604,-0.01392454667148413,-0.07401154061760754
1728303249450623000,4.854623046875,-9.806339034354686,-0.015954947387392168,-0.07642646997196134
1728303249460683000,4.86468310546875,-9.806316238000989,-0.018527577779308194,-0.07872145360792056
1728303249470743000,4.874742919921875,-9.806286427384615,-0.021931759057962335,-0.08155127933952025
1728303249480802800,4.884802734375,-9.806254278680681,-0.025751968083379324,-0.08424155960311182
1728303249490862800,4.89486279296875,-9.80622037641108,-0.028870314733043776,-0.0871406603117939
1728303249500923000,4.9049228515625,-9.806194657447934,-0.03142909127118764,-0.08911375048304908
1728303249510983000,4.91498291015625,-9.806165431353449,-0.03434272282872116,-0.09121850420995616
1728303249521043000,4.92504296875,-9.806142050477861,-0.037348914340802,-0.09255271195578388
1728303249531103000,4.93510302734375,-9.806119254124164,-0.04025214551861863,-0.093732825118443
1728303249541163000,4.9451630859375,-9.806103472033142,-0.04308335948970634,-0.09413628221964462
1728303249551222800,4.955222900390625,-9.806078922113775,-0.04638096712983679,-0.09513296510679647
1728303249561282800,4.96528271484375,-9.80605144958496,-0.050305922021227883,-0.095963013589615
1728303249571342800,4.9753427734375,-9.80601696279347,-0.054639457713509906,-0.0970972052513156
1728303249581403000,4.98540283203125,-9.805984229567647,-0.058890064362692646,-0.0979416932514403
1728303249591463000,4.995462890625,-9.805947989210486,-0.0631814551134128,-0.09888470972259529
1728303249601523000,5.00552294921875,-9.805909995287656,-0.06733271130765787,-0.09990849981238134
1728303249611583000,5.0155830078125,-9.805874339452386,-0.0718670987677062,-0.10022888174001127
1728303249621642800,5.025642822265625,-9.805836930051445,-0.0764133775949478,-0.10055715471315196
1728303249631702800,5.035702880859375,-9.805796598041058,-0.0804977516985964,-0.10127946850517765
1728303249641763000,5.04576318359375,-9.80575568150878,-0.08473366310214624,-0.10179645071714184
1728303249651822800,5.05582275390625,-9.805702490016817,-0.0898287029525265,-0.10255621957588008
1728303249661883000,5.0658828125,-9.805649883046746,-0.09525675588324665,-0.10269081487413495
1728303249671943000,5.07594287109375,-9.80558558563888,-0.10110371921262704,-0.10319398775645532
1728303249682002700,5.086002685546875,-9.805516027534008,-0.10659047092748805,-0.10430442408323287
1728303249692063000,5.09606298828125,-9.805444715863466,-0.11217507525994441,-0.10516596368285827
1728303249702123000,5.106123046875,-9.805385094630717,-0.1173765894257929,-0.10501825317470356
1728303249712182800,5.116182861328125,-9.805329565051197,-0.12224268849166109,-0.10463653298127465
1728303249722242800,5.126242919921875,-9.805273450949787,-0.12686441174186766,-0.1043987695694901
1728303249732302800,5.136302734375,-9.80521382971704,-0.13143406687811948,-0.1043367645834107
1728303249742363000,5.14636279296875,-9.805151870396733,-0.13597613075454718,-0.10434071010616608
1728303249752423000,5.1564228515625,-9.805086988466977,-0.14035911334543488,-0.10463014890626073
1728303249762483000,5.16648291015625,-9.805021522015332,-0.14520871793422846,-0.10416205647047609
1728303249772543000,5.17654296875,-9.804940273472667,-0.15016177376434206,-0.10481700411471538
1728303249782602800,5.186602783203125,-9.804850257101654,-0.1548732941898517,-0.1063540592225734
1728303249792662800,5.196662841796875,-9.804753810989856,-0.1592966453237459,-0.10867264749640598
1728303249802722800,5.206722900390625,-9.80465561131239,-0.16401994751859456,-0.11051601034076884
1728303249812782800,5.216782958984375,-9.804551566416025,-0.16847802290599792,-0.11301217453805729
1728303249822843000,5.2268427734375,-9.804449275085329,-0.17271144095836205,-0.11543872583154588
1728303249832903000,5.23690283203125,-9.804342307579518,-0.17663016703836618,-0.11856594534083269
1728303249842963000,5.246962890625,-9.80422364963591,-0.1808717135982588,-0.12192293675169348
1728303249853022700,5.257022705078125,-9.804087456035614,-0.18524421132775024,-0.1262277486729901
1728303249863083000,5.2670830078125,-9.803952431479097,-0.18979619380999355,-0.12992524235090241
1728303249873143000,5.27714306640625,-9.803802209353446,-0.19408064792985094,-0.13482338965600354
1728303249883202800,5.287202880859375,-9.803647895574569,-0.19854714408572763,-0.13947681408557108
1728303249893262800,5.297262939453125,-9.803488905620574,-0.2024750398528762,-0.1449068671771325
1728303249903323000,5.307322998046875,-9.803337514451146,-0.20649644085606558,-0.1493872731273528
1728303249913382700,5.317382568359375,-9.803186123281717,-0.20994751289170235,-0.15442567828651516
1728303249923443000,5.32744287109375,-9.80304992968142,-0.21328641152344643,-0.15846225859252736
1728303249933503000,5.3375029296875,-9.80290263016522,-0.21618081779070197,-0.1635513618924655
1728303249943563000,5.34756298828125,-9.802765852043033,-0.2188867157485336,-0.168095435062889
1728303249953622800,5.357622802734375,-9.80261913704872,-0.2211848000904545,-0.17354971841340883
1728303249963682800,5.367682861328125,-9.802456639963388,-0.22408041193410752,-0.1789173646600917
1728303249973742800,5.377742919921875,-9.802291804790496,-0.2265759185442701,-0.1847090998040512
1728303249983803000,5.387802978515625,-9.802123462486266,-0.2290755716065876,-0.19049785753963513
1728303249993863000,5.39786279296875,-9.80196914870739,-0.23099841116163877,-0.19601658442849293
1728303250003923000,5.4079228515625,-9.801826525366305,-0.2334862824546173,-0.20017620659228413
1728303250013982700,5.417982666015625,-9.80168857820034,-0.23527375039327889,-0.20476958053084088
1728303250024042800,5.428042724609375,-9.801586286869645,-0.23687725833347065,-0.20780628134561702
1728303250034103000,5.43810302734375,-9.801489840757846,-0.23810948527585712,-0.210910512704961
1728303250044163000,5.4481630859375,-9.801397486299276,-0.2397192220274359,-0.21336871951203792
1728303250054222800,5.458222900390625,-9.80129636401236,-0.24116184031749144,-0.2163574712655507
1728303250064283000,5.468282958984375,-9.801191150072217,-0.2428829467553645,-0.21919806498633695
1728303250074343000,5.478343017578125,-9.80109236587286,-0.24438536894125862,-0.22191421034354716
1728303250084402700,5.488402587890625,-9.801005856633186,-0.24626880806768311,-0.22365853326022625
1728303250094463000,5.498462890625,-9.800930453309416,-0.24807656987570226,-0.224949778647162
1728303250104523000,5.50852294921875,-9.80086966303289,-0.24998594716098158,-0.22547970253909005
1728303250114582800,5.518582763671875,-9.80083050006628,-0.25100049449838696,-0.22605067082745953
1728303250124642800,5.528642822265625,-9.800814133453368,-0.2520361028901301,-0.22562278253789989
1728303250134702800,5.538702880859375,-9.800822316759824,-0.25259508847976103,-0.2246371325014159
1728303250144763000,5.548762939453125,-9.80084686667919,-0.25297840697523205,-0.22314141405094415
1728303250154823000,5.558822998046875,-9.800863233292102,-0.25321400582939385,-0.22213183514960108
1728303250164883000,5.568883056640625,-9.800862064248323,-0.253915176368691,-0.22139858897160739
1728303250174943000,5.57894287109375,-9.80083108458817,-0.2544370082857087,-0.22215231168204916
1728303250185002800,5.589002685546875,-9.800796597796678,-0.2554566153907217,-0.22251281555751337
1728303250195062800,5.599062744140625,-9.800745744392275,-0.25633186385529116,-0.2237375715794973
1728303250205123000,5.609123046875,-9.800690799334644,-0.25744972543669864,-0.22487501464420928
1728303250215182800,5.619182861328125,-9.800652805411815,-0.25811662838021293,-0.2257650222864933
1728303250225243000,5.629242919921875,-9.800633516189455,-0.25909424124071373,-0.22546737278047949
1728303250235303000,5.639302978515625,-9.800589677047729,-0.25981968770474195,-0.22653808901822192
1728303250245363000,5.649363037109375,-9.800537070077658,-0.26087242989437653,-0.22761340836584568
1728303250255422700,5.659422607421875,-9.800486216673255,-0.26168060447210445,-0.22886876045549287
1728303250265483000,5.66948291015625,-9.800431271615624,-0.2629613467313349,-0.22974950707908717
1728303250275543000,5.67954296875,-9.800319627934694,-0.26425030882963907,-0.23300136674819513
1728303250285602800,5.689602783203125,-9.800208568775654,-0.2656252687109634,-0.23608950548926366
1728303250295662800,5.699662841796875,-9.800096925094723,-0.26711355277365073,-0.23902709331111982
1728303250305723000,5.709722900390625,-9.799982358804344,-0.2688065108292736,-0.24180910697877406
1728303250315783000,5.719782958984375,-9.799873053210973,-0.2702377492087893,-0.24462734273727982
1728303250325843000,5.729843017578125,-9.799761409530044,-0.27173821689961475,-0.24741936634229494
1728303250335903000,5.739903076171875,-9.799650934892892,-0.2728861813583411,-0.2505085097303614
1728303250345962800,5.749962646484375,-9.799520001989602,-0.27434849072955547,-0.2540195683249272
1728303250356022800,5.760022705078125,-9.799385561954974,-0.27589754680246115,-0.25750154695548116
1728303250366082800,5.770082763671875,-9.799248783832788,-0.2776718812649138,-0.2607774816199206
1728303250376143000,5.78014306640625,-9.799128956845403,-0.27885573902092875,-0.26398922847434875
1728303250386203000,5.790202880859375,-9.79900328463912,-0.2801518797786906,-0.267269601851888
1728303250396263000,5.800262939453125,-9.798906254005432,-0.28080172198954967,-0.2701261968594044
1728303250406323000,5.810322998046875,-9.798809223371743,-0.2813930024135858,-0.27302891429727894
1728303250416382700,5.8203828125,-9.798719207000731,-0.2815683224478736,-0.2760462162918411
1728303250426442800,5.83044287109375,-9.798645557242631,-0.28179654171317814,-0.27843049934618175
1728303250436503000,5.8405029296875,-9.798575999137759,-0.28172497431430965,-0.28094279269436373
1728303250446562800,5.850562744140625,-9.798470785197615,-0.28252916683666407,-0.2837714585153386
1728303250456622800,5.860622802734375,-9.798357972472905,-0.283274614909105,-0.2869228717509657
1728303250466683000,5.870682861328125,-9.798235807397962,-0.28458931423686445,-0.28977995994882655
1728303250476742100,5.8807421875,-9.798076232922076,-0.28601498139211906,-0.2937367712832056
1728303250486802400,5.890802490234375,-9.79790438348651,-0.28795172160835936,-0.2975499546295032
1728303250496862200,5.9008623046875,-9.797741886401177,-0.28980858325511216,-0.30108861361704764
1728303250506922200,5.910922119140625,-9.797568283399938,-0.29198473998410623,-0.30459791864594443
1728303250516982300,5.920982177734375,-9.797369545957446,-0.2945712310796603,-0.30847620311770585
1728303250527042000,5.9310419921875,-9.797198281043768,-0.29721741647319866,-0.3113671753188595
1728303250537102300,5.941102294921875,-9.796996620991825,-0.299692738811858,-0.31532146590258925
1728303250547162400,5.951162353515625,-9.79678327050209,-0.30229804420573636,-0.31943737678881734
1728303250557222400,5.961222412109375,-9.796549461746215,-0.3045093270470388,-0.32446653006244447
1728303250567282200,5.9712822265625,-9.79629928637743,-0.30654329882636666,-0.3300509425986558
1728303250577342200,5.98134228515625,-9.796021638479829,-0.3077052187452093,-0.3371318773029372
1728303250587402200,5.99140234375,-9.79570073596239,-0.30909393315725026,-0.3450977781482041
1728303250597462300,6.001462158203125,-9.795382171532511,-0.3097875049119815,-0.35342407327108083
1728303250607522300,6.011522216796875,-9.795009246566892,-0.31109858751054853,-0.36248438175693154
1728303250617582300,6.021582275390625,-9.794634568035603,-0.31237565824165936,-0.3714048799132928
1728303250627642000,6.03164208984375,-9.794286192989349,-0.31396446180306375,-0.3791689745761454
1728303250637702100,6.0417021484375,-9.793937233421206,-0.315888707863912,-0.3865058202702552
1728303250647762200,6.05176220703125,-9.793494750350714,-0.32011812559459357,-0.3941626186337322
1728303250657822500,6.061822509765625,-9.793053436324,-0.32397823508884754,-0.40191041974890973
1728303250667882200,6.07188232421875,-9.79264368647933,-0.3277205999549478,-0.4087965990660712
1728303250677942300,6.0819423828125,-9.792198865321279,-0.3311826135097071,-0.4165905408779159
1728303250688002300,6.092002197265625,-9.791891406807302,-0.3326761765357107,-0.4225732685493305
1728303250698062000,6.10206201171875,-9.791629541000724,-0.3335814182797447,-0.4278950115613639
1728303250708122400,6.112122314453125,-9.791461198696494,-0.33334249495733526,-0.431915280053392
1728303250718182400,6.122182373046875,-9.791303962308168,-0.3334756563503295,-0.43536264402829106
1728303250728242200,6.1322421875,-9.791218037590385,-0.33328853628039357,-0.4374417518572882
1728303250738302200,6.14230224609375,-9.791144972354173,-0.3335455432487652,-0.43887960264068093
1728303250748362200,6.1523623046875,-9.79113269739449,-0.3333331426071003,-0.4393145965244621
1728303250758422000,6.162422119140625,-9.79114964852929,-0.33302827790901063,-0.4391619632460177
1728303250768482300,6.172482421875,-9.791165430620312,-0.3328122970707714,-0.43897374719753857
1728303250778542300,6.182542236328125,-9.79124141846597,-0.33216556013245135,-0.4377626909073442
1728303250788602400,6.192602294921875,-9.79131740631163,-0.33114735953323543,-0.43684561259504406
1728303250798662100,6.202662109375,-9.791415021467209,-0.33032205115761604,-0.4352698146456852
1728303250808722200,6.21272216796875,-9.791494516444205,-0.3290652925621718,-0.4344367248224094
1728303250818782200,6.2227822265625,-9.791606744647025,-0.3282915682433173,-0.4324832161344588
1728303250828842200,6.23284228515625,-9.791744107291102,-0.3272034442130476,-0.4301997083071619
1728303250838902300,6.24290234375,-9.79189666750431,-0.326278913246654,-0.4274229005375877
1728303250848962300,6.25296240234375,-9.792020586144924,-0.325309227964282,-0.4253065659707412
1728303250859022000,6.26302197265625,-9.79213632147908,-0.3248641510779038,-0.42297647905535996
1728303250869082000,6.27308203125,-9.792204710540174,-0.32436219290513546,-0.42178843831457197
1728303250879142400,6.283142333984375,-9.792290050736069,-0.3237016831697896,-0.420301670355536
1728303250889202400,6.293202392578125,-9.79234674935937,-0.32315661650765687,-0.419402310363017
1728303250899262200,6.30326220703125,-9.792444949036836,-0.32318898440729826,-0.4170793838407844
1728303250909322200,6.313322265625,-9.792540810626745,-0.3229943020854145,-0.41497722392976283
1728303250919382300,6.32338232421875,-9.792639594826102,-0.3231809472313151,-0.41249260403979565
1728303250929442000,6.333442138671875,-9.79270096962452,-0.32344222851600496,-0.41082887207865715
1728303250939502300,6.34350244140625,-9.792756499204039,-0.324209559626691,-0.40889151080790903
1728303250949562400,6.353562255859375,-9.792767020598053,-0.32513054692912846,-0.40790790659803894
1728303250959622100,6.3636220703125,-9.792730780240893,-0.32650037397760895,-0.4076824272790924
1728303250969682200,6.37368212890625,-9.792636087694763,-0.3282598579308018,-0.4085394094346091
1728303250979742200,6.3837421875,-9.792482358437775,-0.3301036956992,-0.410739769023098
1728303250989802200,6.39380224609375,-9.792290050736069,-0.33254221142511814,-0.4133509379021823
1728303250999862300,6.4038623046875,-9.792059164589643,-0.33524723260011524,-0.4166225434513762
1728303251009922300,6.41392236328125,-9.791794960695505,-0.338058198367618,-0.4205432970916852
1728303251019982300,6.423982421875,-9.791455353477597,-0.3416382488114759,-0.4255276613755151
1728303251030042000,6.4340419921875,-9.791098210602998,-0.34577410650718954,-0.4303704252315685
1728303251040102100,6.44410205078125,-9.790698397630452,-0.35026696094702925,-0.43580709986016153
1728303251050162400,6.454162353515625,-9.790282218044995,-0.35546339707896113,-0.44091158339232206
1728303251060222200,6.46422216796875,-9.78984674923718,-0.36047205555383116,-0.4464809444898739
1728303251070282200,6.4742822265625,-9.789463887399435,-0.36560269644055515,-0.45068288969174025
1728303251080342300,6.48434228515625,-9.789032510244846,-0.3707919356467202,-0.4557880673436448
1728303251090402300,6.49440234375,-9.788621591356396,-0.3758030418070033,-0.46048802519552406
1728303251100462000,6.504462158203125,-9.78814695958197,-0.3812427851755172,-0.46606885753516103
1728303251110522400,6.5145224609375,-9.787695124161242,-0.3867394463630393,-0.47100247801244255
1728303251120582400,6.52458251953125,-9.78728888144791,-0.3918840792424977,-0.4751756720438599
1728303251130642200,6.53464208984375,-9.787077284523845,-0.3951944093668833,-0.47678307070787995
1728303251140702200,6.5447021484375,-9.786846398377419,-0.3987230584170669,-0.4785846402371302
1728303251150762200,6.55476220703125,-9.786669288244843,-0.40167588034067303,-0.4797375365993008
1728303251160822300,6.564822265625,-9.786464705583452,-0.4049445632804185,-0.4811608839333057
1728303251170882300,6.57488232421875,-9.786249601528048,-0.40769988987054673,-0.4831989290995523
1728303251180942300,6.5849423828125,-9.786000595203042,-0.41046727222464974,-0.4858888623032719
1728303251191002400,6.59500244140625,-9.785738144874573,-0.41296102526914324,-0.48905094306338576
1728303251201062100,6.605062255859375,-9.78548212428689,-0.4156246549878269,-0.49192021488938475
1728303251211122200,6.6151220703125,-9.785221427524089,-0.4180438449587673,-0.4950378719858825
1728303251221182500,6.625182373046875,-9.784970667633413,-0.4203044833671301,-0.49807552264872934
1728303251231242200,6.6352421875,-9.784725752961634,-0.42247371716499327,-0.5010431402826682
1728303251241302300,6.64530224609375,-9.784483176377416,-0.42488253187239167,-0.5037364710198715
1728303251251362300,6.6553623046875,-9.784349905386566,-0.42717703601773827,-0.5043827695667743
1728303251261422000,6.665422119140625,-9.784228324833512,-0.4298965971747413,-0.5044341709604486
1728303251271482000,6.675482177734375,-9.78419266899824,-0.43264859929662197,-0.5027687219662591
1728303251281542400,6.68554248046875,-9.784178055951,-0.4361990583198145,-0.4999781413996592
1728303251291602200,6.695602294921875,-9.784179224994778,-0.44061413481570777,-0.49606286765206603
1728303251301662200,6.705662109375,-9.784169872644544,-0.4454324218176305,-0.491927557945624
1728303251311722200,6.71572216796875,-9.78410089906156,-0.4504008213473484,-0.4887724549155682
1728303251321782300,6.7257822265625,-9.783985748249291,-0.4559606108989566,-0.48590840725395823
1728303251331842300,6.73584228515625,-9.783808638116717,-0.461933547828719,-0.4838322950996458
1728303251341902300,6.74590234375,-9.783584766232966,-0.4674953832069412,-0.48301750811804084
1728303251351962400,6.75596240234375,-9.783284321981668,-0.4729410448595881,-0.4837995618738234
1728303251362022100,6.766022216796875,-9.78300082886517,-0.4786738528905436,-0.48388987050578
1728303251372082200,6.776082275390625,-9.782769358196854,-0.48388205252550537,-0.48339236931242047
1728303251382142200,6.78614208984375,-9.78253262683153,-0.4886083138624206,-0.4834225087223574
1728303251392202200,6.7962021484375,-9.78230817042589,-0.49299865777585655,-0.48351033313628283
1728303251402262300,6.80626220703125,-9.782100080633162,-0.49699890639316285,-0.4836222325455397
1728303251412322300,6.816322265625,-9.781934660938381,-0.5009013571918011,-0.48294966704621906
1728303251422382300,6.82638232421875,-9.781772163853049,-0.5045191823627799,-0.48246524453014134
1728303251432442000,6.836442138671875,-9.781661689215898,-0.507540283749625,-0.4815381562804803
1728303251442502100,6.846502197265625,-9.781549461013078,-0.5103321064252406,-0.4808692805755883
1728303251452562400,6.8565625,-9.781367674705386,-0.5133308133171871,-0.4813735037706792
1728303251462622200,6.866622314453125,-9.78111633029282,-0.5161967972075566,-0.4834186727974564
1728303251472682200,6.87668212890625,-9.780812963432073,-0.5187761827088893,-0.4867842037077993
1728303251482743000,6.886742919921875,-9.780424840897322,-0.5218637003954499,-0.49125130265187467
1728303251492803000,6.896802978515625,-9.780058345672488,-0.5248278474306688,-0.4953740451376885
1728303251502863000,6.906863037109375,-9.779600665032863,-0.528473875782825,-0.5005105312433094
1728303251512923100,6.916923095703125,-9.779155843874811,-0.5316540401889011,-0.5058076512707397
1728303251522983200,6.926983154296875,-9.778608731386065,-0.5354872251436114,-0.5122946386698634
1728303251533043200,6.937043212890625,-9.778066295072437,-0.5395088818751276,-0.518394197653979
1728303251543103200,6.947103271484375,-9.77757646572888,-0.5430521805051713,-0.5239066774651407
1728303251553163000,6.9571630859375,-9.777083713775873,-0.5470236779520288,-0.5289455849478021
1728303251563223000,6.96722314453125,-9.776544784593582,-0.5508413730766624,-0.5349125305281952
1728303251573283000,6.977282958984375,-9.775976044794916,-0.5547012999078259,-0.5412741014493629
1728303251583343000,6.987343017578125,-9.775402044299245,-0.5583352724960073,-0.5478657547993585
1728303251593403100,6.997403076171875,-9.774839149719476,-0.5617425236562267,-0.5543914667736739
1728303251603463200,7.007463134765625,-9.774203774425386,-0.5656356221046298,-0.5615840816915035
1728303251613523200,7.017523193359375,-9.773601716879009,-0.5690136837029829,-0.5686085004355758
1728303251623583000,7.0275830078125,-9.772978032022714,-0.5727925446545705,-0.5754950085463002
1728303251633643300,7.037643310546875,-9.772430335012078,-0.5760032137967646,-0.5815588751625269
1728303251643703300,7.047703369140625,-9.771907772442697,-0.5793726536972448,-0.5869653373159468
1728303251653763000,7.05776318359375,-9.7714202811867,-0.5827984268948435,-0.5916692041579633
1728303251663823000,7.067822998046875,-9.77095324819684,-0.5857334939660505,-0.5964674347525463
1728303251673883100,7.077883056640625,-9.770566879227756,-0.5884298203779385,-0.6001357845343649
1728303251683943000,7.08794287109375,-9.770161805558205,-0.5909650379439816,-0.6042175374226644
1728303251694003200,7.098003173828125,-9.76976082354188,-0.5936339648922905,-0.6080766970688477
1728303251704063200,7.108063232421875,-9.769332953518628,-0.595618270577304,-0.6129919051066041
1728303251714123000,7.118123046875,-9.768864751484989,-0.5975703910257667,-0.618530103880912
1728303251724183000,7.12818310546875,-9.768388366144896,-0.5991583908695727,-0.6244871125891804
1728303251734243000,7.1382431640625,-9.767993229347466,-0.5999743468949571,-0.6298551424283534
1728303251744303000,7.14830322265625,-9.767604522290826,-0.6006825316969305,-0.6351904390417039
1728303251754363100,7.158363037109375,-9.767275436466932,-0.600919774518907,-0.640008506847918
1728303251764423200,7.168423095703125,-9.766976161259413,-0.6011671734087168,-0.6443243242204189
1728303251774483200,7.178483154296875,-9.766748782244324,-0.6005761487130076,-0.6483120786823332
1728303251784543000,7.18854296875,-9.76651672705412,-0.6002099457491189,-0.6521344865147024
1728303251794603000,7.19860302734375,-9.766296362301707,-0.5996698475230485,-0.6559270106654613
1728303251804663300,7.208663330078125,-9.766208099496364,-0.5981794628348202,-0.6585914806343615
1728303251814723000,7.21872314453125,-9.766151400873065,-0.5970313887782395,-0.6604716683577746
1728303251824783000,7.228783203125,-9.766110484340786,-0.5958084959197789,-0.6621806642327457
1728303251834843100,7.238843017578125,-9.766145555654168,-0.5945993027931079,-0.6627527650322764
1728303251844903200,7.248903076171875,-9.766139125913382,-0.5937783052664249,-0.6635754795920104
1728303251854963000,7.258962890625,-9.766227973240614,-0.5925224965190514,-0.663393401023373
1728303251865023200,7.269023193359375,-9.766316236045956,-0.5918344046570361,-0.6627110447824001
1728303251875083300,7.279083251953125,-9.766324419352411,-0.5917168061593547,-0.6626929246038198
1728303251885143000,7.28914306640625,-9.76641852737665,-0.5913809983337298,-0.6616032296709716
1728303251895203000,7.299203125,-9.766523741316794,-0.5913865512916818,-0.6600432868778705
1728303251905263000,7.30926318359375,-9.766582193505764,-0.591962634146586,-0.6586660071752966
1728303251915323100,7.3193232421875,-9.766764564335345,-0.5924169172527268,-0.6555402763701975
1728303251925383200,7.329383056640625,-9.767067931196094,-0.5923950342144817,-0.6510299593389034
1728303251935443200,7.339443115234375,-9.76748294173777,-0.5921073763795197,-0.6450332031421363
1728303251945503200,7.349503173828125,-9.767955235424637,-0.5915204798696563,-0.6383862394083291
1728303251955563000,7.35956298828125,-9.768497087216376,-0.5907290737636387,-0.6307806597754358
1728303251965623000,7.369623046875,-9.769109081634879,-0.589331774186343,-0.6225620628107339
1728303251975683300,7.379683349609375,-9.769807000771165,-0.5875433198669925,-0.613228563406691
1728303251985743000,7.3897431640625,-9.770555188789963,-0.5861019254196435,-0.602597535005398
1728303251995803100,7.39980322265625,-9.771277657845616,-0.5844173698661849,-0.5924312745716422
1728303252005863200,7.40986328125,-9.772000126901268,-0.5826696859486401,-0.5821418261496349
1728303252015923000,7.4199228515625,-9.772692785340547,-0.5805573334371671,-0.572549456613697
1728303252025983000,7.42998291015625,-9.773405902045965,-0.5781761373890564,-0.5627069482415914
1728303252036043300,7.440043212890625,-9.77404887612462,-0.5763629504872486,-0.5533128046914935
1728303252046103300,7.450103271484375,-9.77464625749588,-0.5741958355812355,-0.5449555299084633
1728303252056163000,7.4601630859375,-9.775212074685097,-0.5719407501308247,-0.5371222789995372
1728303252066223000,7.47022314453125,-9.775772631177306,-0.5696823767447844,-0.5292588156154379
1728303252076283100,7.480283203125,-9.776274150958656,-0.5678362008888274,-0.5219240522805602
1728303252086343200,7.49034326171875,-9.776810742053389,-0.5653428862357511,-0.5145337593661621
1728303252096403200,7.5004033203125,-9.77730992374718,-0.5627066559806466,-0.507891654470563
1728303252106463200,7.510463134765625,-9.777808520919084,-0.5603451510136946,-0.5008594908114522
1728303252116523000,7.52052294921875,-9.77831822400689,-0.5575209969710558,-0.4940077617531642
1728303252126583000,7.5305830078125,-9.778761876121163,-0.554955713060312,-0.48808706646729255
1728303252136643000,7.54064306640625,-9.77917630214095,-0.5524682070935145,-0.4825664764149114
1728303252146703400,7.550703369140625,-9.779536367624997,-0.5497794429335743,-0.47832419920265673
1728303252156763100,7.56076318359375,-9.779927997291088,-0.5468993574526161,-0.473594649930112
1728303252166823200,7.5708232421875,-9.780246561720967,-0.5441650371178984,-0.47015422715265304
1728303252176883200,7.58088330078125,-9.780550513103604,-0.5415464155847206,-0.4668422895930707
1728303252186943000,7.59094287109375,-9.780841020482779,-0.5382753580247983,-0.4645325878785923
1728303252197003000,7.6010029296875,-9.781140295690298,-0.5346335674563423,-0.462433314044401
1728303252207063300,7.611063232421875,-9.78139631627798,-0.5315435290191323,-0.4605829004047438
1728303252217123000,7.621123046875,-9.781634801208972,-0.5284129028432071,-0.459115239004977
1728303252227184000,7.63118408203125,-9.781865102833509,-0.525234455470182,-0.45785771322455254
1728303252237243100,7.6412431640625,-9.782018832090497,-0.5223515204450115,-0.45786772316191343
1728303252247303200,7.65130322265625,-9.782219323098658,-0.5194671241151169,-0.4568610303374007
1728303252257363200,7.66136328125,-9.782350840523838,-0.5166077160960063,-0.4572860508164391
1728303252267423200,7.67142333984375,-9.78247943533957,-0.5135139147991314,-0.4580154976021498
1728303252277483300,7.681483154296875,-9.782584064757824,-0.5107497838480398,-0.45887426985595375
1728303252287543000,7.69154296875,-9.782642516946792,-0.5080370908232406,-0.46064171791989356
1728303252297603000,7.70160302734375,-9.782730779752134,-0.5051436709366739,-0.4619386623952538
1728303252307664100,7.7116640625,-9.782792154550553,-0.502338221594505,-0.46369789062011985
1728303252317724200,7.72172412109375,-9.782861712655425,-0.4997404236536473,-0.46503684760630126
1728303252327784000,7.731783935546875,-9.782917242234944,-0.49708870356846596,-0.46671442542970176
1728303252337844200,7.74184423828125,-9.782994983646272,-0.4943204444315284,-0.46801228322051464
1728303252347904300,7.751904296875,-9.783075647667049,-0.4920817621266469,-0.46868992675375193
1728303252357964000,7.761964111328125,-9.783145790293812,-0.4895872418971732,-0.46983431101590395
1728303252368024000,7.772024169921875,-9.783175016388297,-0.48772842575535175,-0.4711595682702958
1728303252378084000,7.782083984375,-9.783226454314589,-0.48574759066905826,-0.4721368158046156
1728303252388144000,7.79214404296875,-9.783198397263885,-0.4846410541992634,-0.4738497937349602
1728303252398204200,7.8022041015625,-9.783147543859481,-0.4839453635526821,-0.47560719532892104
1728303252408264200,7.81226416015625,-9.783034731134771,-0.48355362428873777,-0.4783216053867712
1728303252418324200,7.82232421875,-9.782911981537938,-0.483817462856695,-0.48056112794186917
1728303252428384000,7.832384033203125,-9.782760005846619,-0.4843997927892953,-0.48305897263959047
1728303252438444000,7.842444091796875,-9.78258874093294,-0.48556087245792146,-0.48535234427377577
1728303252448504300,7.85250439453125,-9.782377728530763,-0.4870913334282115,-0.4880739147247746
1728303252458564000,7.862564208984375,-9.782152103081344,-0.4888371541822329,-0.4908396531110629
1728303252468624100,7.8726240234375,-9.781927646675705,-0.49097610243968665,-0.49317693695221093
1728303252478684000,7.882683837890625,-9.781707866445183,-0.4930329253716394,-0.4954701259233057
1728303252488744000,7.892743896484375,-9.781467627948523,-0.49531409511137753,-0.49793173026386645
1728303252498804000,7.902803955078125,-9.781232065626979,-0.49750966892689463,-0.5003710131747647
1728303252508864000,7.912864013671875,-9.780974875995517,-0.49973351898882534,-0.5031712383525446
1728303252518923000,7.922923095703125,-9.780732883933187,-0.5020672591660171,-0.505546443051286
1728303252528983000,7.932983154296875,-9.780524794140458,-0.5039530363800003,-0.5076945609958842
1728303252539043000,7.94304296875,-9.780295077037811,-0.5059071295898407,-0.5101626681424677
1728303252549103000,7.95310302734375,-9.780084064635634,-0.5076439998524264,-0.5124792745217681
1728303252559163100,7.9631630859375,-9.779855516576767,-0.509115058785677,-0.5153737903868779
1728303252569223000,7.973222900390625,-9.779648595827817,-0.5104998642075806,-0.517922853815183
1728303252579283000,7.983282958984375,-9.779482591611146,-0.5116075331885367,-0.519959656872414
1728303252589343000,7.993343017578125,-9.77929028390944,-0.5130156098881736,-0.5221861372828484
1728303252599403000,8.003403076171875,-9.779169872400164,-0.5140343950092792,-0.5234453070310875
1728303252609463000,8.013463134765624,-9.779029587146638,-0.5151000880120322,-0.5250092684121802
1728303252619523000,8.023523193359376,-9.778968796870112,-0.5160961863772944,-0.5251663221374154
1728303252629583000,8.0335830078125,-9.778891639980673,-0.517026635627821,-0.5256870215432718
1728303252639643000,8.043642822265625,-9.778886379283666,-0.5178259693119674,-0.5249921711469069
1728303252649703000,8.053702880859374,-9.778864167451857,-0.5186687768116593,-0.5245748955829068
1728303252659763200,8.06376318359375,-9.778887548327445,-0.5191522494796663,-0.5236659640444442
1728303252669823000,8.073822998046875,-9.77893255651295,-0.5194018403265624,-0.5225753192635253
1728303252679883000,8.083883056640625,-9.778938986253738,-0.5196308267768472,-0.5222304878812283
1728303252689943000,8.093943115234374,-9.778988086092472,-0.5196412751056254,-0.5212906132152304
1728303252700002800,8.1040029296875,-9.779031340712308,-0.5194722752142698,-0.5206562243018299
1728303252710063000,8.11406298828125,-9.779109082123636,-0.5188099023154005,-0.5198504608768969
1728303252720123100,8.124123046875,-9.779225986501574,-0.5182249055016785,-0.5182325408188626
1728303252730183000,8.134182861328124,-9.779339383748173,-0.5173235727477818,-0.5169931717496365
1728303252740243000,8.144242919921876,-9.779509479618072,-0.5160454791033641,-0.5150544222394005
1728303252750303000,8.154302978515625,-9.779709386104345,-0.5146189168989658,-0.5126789618123322
1728303252760363000,8.164363037109375,-9.779965406692028,-0.5128561450101435,-0.5095518062351271
1728303252770423000,8.174423095703125,-9.780216166582703,-0.5109839213974774,-0.5066127571085468
1728303252780483000,8.184483154296874,-9.780511350136996,-0.5084677373254671,-0.5034294143646956
1728303252790543000,8.194543212890625,-9.780767955246567,-0.5066056697806343,-0.5003117938008159
1728303252800603000,8.204602783203125,-9.781083012545109,-0.5039697317864745,-0.49679918256998057
1728303252810663000,8.214662841796875,-9.781382872274518,-0.5014469718432054,-0.4934440634557977
1728303252820723000,8.224722900390624,-9.78169500696361,-0.49928376592732965,-0.48942547546420245
1728303252830783000,8.234782958984376,-9.781967978686094,-0.49708231036029754,-0.486203956134431
1728303252840843000,8.244843017578125,-9.782226921883225,-0.4950266564721241,-0.48308056341689076
1728303252850903000,8.254903076171875,-9.7824776817739,-0.4932340374343097,-0.4798338000480085
1728303252860963000,8.264963134765624,-9.782727272620797,-0.49155013946797693,-0.47645767467841504
1728303252871022800,8.27502294921875,-9.782959327811001,-0.49025052811149505,-0.4730144023567438
1728303252881083100,8.285083251953125,-9.78320482700467,-0.4888425975423306,-0.46938674991149454
1728303252891143200,8.29514306640625,-9.783436297672987,-0.48789486836344,-0.46552883237432685
1728303252901203000,8.305202880859374,-9.78367244451642,-0.48725982186291367,-0.4612138917846605
1728303252911263000,8.315262939453126,-9.783863583174348,-0.4868256682293489,-0.4575987334948033
1728303252921323000,8.325322998046875,-9.78402666478157,-0.4868503642791882,-0.45407041323818265
1728303252931382800,8.3353828125,-9.78417630238533,-0.48678877028506246,-0.45090135474801063
1728303252941443000,8.345443115234374,-9.78428911511004,-0.48710949013940985,-0.4481064998650923
1728303252951503000,8.355503173828126,-9.784432322973013,-0.4879144133141264,-0.44407603877261276
1728303252961563100,8.365563232421875,-9.784554488047958,-0.4888991135025397,-0.440287387079373
1728303252971623000,8.375622802734375,-9.784666131728887,-0.490128509167023,-0.4364237704537809
1728303252981683000,8.385682861328124,-9.784767254015803,-0.4915757488332689,-0.432515876295045
1728303252991743000,8.395742919921876,-9.78486486917138,-0.4931787270504981,-0.42845458167288447
1728303253001803000,8.405802978515625,-9.784912799966335,-0.49506969189625233,-0.4251785922095179
1728303253011863000,8.415863037109375,-9.784953716498613,-0.49716684683859347,-0.42177612682227045
1728303253021923000,8.425923095703125,-9.78501509129703,-0.49920945858210325,-0.4179192687310278
1728303253031982800,8.43598291015625,-9.785075297051668,-0.5015105385987088,-0.41373116939142346
1728303253042043000,8.44604296875,-9.785149531331658,-0.5036036018878222,-0.40941611920390275
1728303253052103200,8.456103271484375,-9.785206814476847,-0.5057328324688598,-0.4053910284062847
1728303253062163200,8.4661630859375,-9.78529566180408,-0.5078980842113494,-0.4005201344342902
1728303253072223000,8.476222900390624,-9.785397368612886,-0.5098323402095586,-0.39554092124961315
1728303253082283000,8.486282958984376,-9.785509596815706,-0.5114750659152865,-0.3906090908706188
1728303253092343000,8.496343017578125,-9.785647543981671,-0.5130712125329301,-0.38502621270436793
1728303253102402800,8.50640283203125,-9.785776723319291,-0.5144992360420525,-0.37979580123759804
1728303253112464000,8.5164638671875,-9.785918177616596,-0.5158048387479037,-0.374339033669047
1728303253122524000,8.52652392578125,-9.786100548446178,-0.5165865271775052,-0.3684548710012808
1728303253132584200,8.536584228515625,-9.786254862225055,-0.5176071023968979,-0.36288898050244894
1728303253142644000,8.54664404296875,-9.786424373573064,-0.5183069942945614,-0.3572697158485651
1728303253152704000,8.5567041015625,-9.78659914561808,-0.5188690486241132,-0.35162736258003857
1728303253162764000,8.566763916015624,-9.786766903400421,-0.5192861415250226,-0.3462956461632624
1728303253172823800,8.57682373046875,-9.7869153719604,-0.5200307493472471,-0.3409348132498562
1728303253182884000,8.586884033203125,-9.787073777392505,-0.5206233814781531,-0.3354376040730625
1728303253192944000,8.596944091796875,-9.78719711151123,-0.5214401412211358,-0.3305489917812869
1728303253203004200,8.607004150390624,-9.7873292134583,-0.5218716645061969,-0.3259183363059535
1728303253213064000,8.61706396484375,-9.78744027261734,-0.5224912577092647,-0.3215529807033017
1728303253223124000,8.6271240234375,-9.78753438064158,-0.5231336107334121,-0.31763240972608325
1728303253233184000,8.63718408203125,-9.787594586396217,-0.5240004566958174,-0.31432354090642184
1728303253243244000,8.647244140625,-9.787633749362826,-0.5247710026768967,-0.3118020230721682
1728303253253304000,8.657303955078126,-9.787679342070222,-0.5253984869254753,-0.30930710098389536
1728303253263364000,8.667364013671875,-9.787696293205022,-0.5261293219506741,-0.30753209066800774
1728303253273424000,8.677423828125,-9.787715582427381,-0.5267539201224223,-0.30583484002975747
1728303253283484000,8.68748388671875,-9.787752991828322,-0.5272147425672039,-0.3038446343269199
1728303253293544000,8.6975439453125,-9.787762344178557,-0.5276926622772589,-0.3027075017894618
1728303253303604000,8.70760400390625,-9.787769358441233,-0.5280135647946969,-0.30191682633580635
1728303253313664000,8.7176640625,-9.78777520366013,-0.5281101205043495,-0.30157142869792875
1728303253323724000,8.72772412109375,-9.787797415491937,-0.5280780448656529,-0.30089128268035126
1728303253333784000,8.7377841796875,-9.787816120192408,-0.5276995304094627,-0.3009441636450588
1728303253343843800,8.74784375,-9.787815535670518,-0.5271539522906765,-0.30193271802468225
1728303253353904000,8.757904052734375,-9.787809690451622,-0.5267898316860199,-0.30274335855413226
1728303253363964200,8.767964111328125,-9.787820796367525,-0.5262643465071917,-0.3033146008371375
1728303253374024000,8.77802392578125,-9.787817873758078,-0.5258886085299774,-0.30405316251106557
1728303253384084000,8.788083984375,-9.787815535670518,-0.5253219145579263,-0.30509671674724664
1728303253394144000,8.79814404296875,-9.787838332024217,-0.5251192681252956,-0.30472234874321147
1728303253404203800,8.808203857421875,-9.787862297421693,-0.5248460406744853,-0.3044156756805256
1728303253414264000,8.81826416015625,-9.787902044910192,-0.5245580905785784,-0.3036405083232559
1728303253424324000,8.828323974609376,-9.787955820924044,-0.5244228468263521,-0.3021432555028237
1728303253434384100,8.838384033203125,-9.788001998153328,-0.5247252638390287,-0.3001075484241359
1728303253444444000,8.84844384765625,-9.788038823032378,-0.5252487397238612,-0.29798608102444557
1728303253454504000,8.85850390625,-9.788064541995524,-0.5260092392349616,-0.2957912013286724
1728303253464564000,8.86856396484375,-9.788120656096934,-0.526358746792376,-0.2932914569348097
1728303253474624300,8.878624267578125,-9.788162741672991,-0.5267880415877327,-0.29112257019681853
1728303253484684300,8.888684326171875,-9.788178523764014,-0.5276479463526978,-0.28902517779245973
1728303253494744000,8.898744140625,-9.788198982030153,-0.5285071204653009,-0.2867584932358004
1728303253504804000,8.90880419921875,-9.788236391431093,-0.5287687305435538,-0.28499442443903533
1728303253514864000,8.918864013671875,-9.788229377168417,-0.5294031925221905,-0.2840554813547991
1728303253524924200,8.928924072265625,-9.788267955613136,-0.5297301229216158,-0.2820995067151263
1728303253534984200,8.938984130859374,-9.78831471736431,-0.530165482131578,-0.279651547307428
1728303253545044200,8.949044189453126,-9.788366739812492,-0.5307308609293774,-0.276740007242281
1728303253555104000,8.95910400390625,-9.788455002617836,-0.5311371036427095,-0.2728146322257817
1728303253565164000,8.9691640625,-9.788593534305692,-0.5311339618375525,-0.26779952574381605
1728303253575224000,8.97922412109375,-9.788716868424414,-0.5313156750800088,-0.2628849204942584
1728303253585284400,8.989284423828124,-9.788840202543138,-0.5314584080189466,-0.25795250559337435
1728303253595344100,8.99934423828125,-9.788990424668789,-0.5314194642480462,-0.2522853284108452
1728303253605404200,9.009404052734375,-9.78911785044074,-0.5313380695749074,-0.24745652001490814
1728303253615464200,9.019464111328125,-9.789242938125133,-0.5312058580299839,-0.24275166679220272
1728303253625524000,9.02952392578125,-9.789132463487983,-0.5339978633686899,-0.24107885647546498
1728303253635584000,9.039583984375,-9.789013805544375,-0.5364463159667328,-0.24046350105609743
1728303253645644300,9.049644287109375,-9.788879950031637,-0.5393110212154686,-0.23948689284259453
1728303253655704000,9.0597041015625,-9.788712192249298,-0.5420413960274308,-0.24017651907457038
1728303253665764000,9.06976416015625,-9.788481306102872,-0.5453195043826475,-0.24217072509909046
1728303253675824000,9.07982421875,-9.788233468821645,-0.5489333109656348,-0.24401100093722342
1728303253685884200,9.08988427734375,-9.788054605123401,-0.5520069462573155,-0.24426351439356803
1728303253695944200,9.099944091796875,-9.787864635509251,-0.5551658852122724,-0.24471434516729784
1728303253706004200,9.110004150390624,-9.787680511114,-0.5583606261329725,-0.2447929633614607
1728303253716064300,9.120064208984376,-9.787524443769454,-0.5610669259496033,-0.24485366230644284
1728303253726124000,9.1301240234375,-9.78734499554932,-0.5641823545563965,-0.2448676177665591
1728303253736184000,9.14018408203125,-9.787074361914396,-0.5686673544833436,-0.24529946984518317
1728303253746244000,9.150244140625,-9.786770995053649,-0.5734527621289714,-0.246282635663636
1728303253756304100,9.16030419921875,-9.78648808645904,-0.5774922833107412,-0.24806993920551612
1728303253766364200,9.1703642578125,-9.786176536291837,-0.5822825132619589,-0.24915587127869948
1728303253776424200,9.180424072265625,-9.78576211027205,-0.5885240014674141,-0.25075886776223777
1728303253786484200,9.190484130859375,-9.785338916423916,-0.5943973139476031,-0.2534097658635117
1728303253796544000,9.2005439453125,-9.78496073076129,-0.5997398074867204,-0.2554204480987973
1728303253806604000,9.21060400390625,-9.784596573624015,-0.604857150500454,-0.25729674509838224
1728303253816664300,9.220664306640625,-9.784222479614614,-0.6102311351563782,-0.2588301469444297
1728303253826724000,9.23072412109375,-9.783830849948524,-0.6159313926246017,-0.2601346719380468
1728303253836784000,9.2407841796875,-9.783496503427624,-0.6210842453431338,-0.26045541005870326
1728303253846844200,9.25084423828125,-9.783228207880258,-0.6247556273322552,-0.2617442990917712
1728303253856904000,9.260904052734375,-9.782935946935416,-0.6288921426150947,-0.2627527089493349
1728303253866964200,9.270964111328125,-9.782655960950255,-0.6331844329815357,-0.2628676953648217
1728303253877024300,9.281024169921874,-9.782399355840683,-0.636738618331775,-0.2638369239894673
1728303253887084300,9.291084228515626,-9.782248549193143,-0.6386196097727864,-0.2648767701649107
1728303253897144000,9.30114404296875,-9.78219944935441,-0.6395408162709325,-0.26446320266164836
1728303253907204000,9.3112041015625,-9.782200618398189,-0.6397323202550411,-0.263975455677323
1728303253917264100,9.32126416015625,-9.782202371963859,-0.6396793479587882,-0.2640300902076997
1728303253927324200,9.33132421875,-9.782276606243848,-0.6388616018351168,-0.2632664671577513
1728303253937384200,9.34138427734375,-9.782396433231234,-0.6375345179498195,-0.2620099094917066
1728303253947444200,9.3514443359375,-9.78257178979814,-0.6355293156072497,-0.26032876973804087
1728303253957504000,9.36150390625,-9.782740716624259,-0.6335627647746354,-0.2587688269449398
1728303253967564000,9.37156396484375,-9.78294296119809,-0.6312788916211575,-0.2567114194910973
1728303253977624000,9.3816240234375,-9.783198397263885,-0.6283532864980399,-0.25414334083506834
1728303253987684000,9.39168408203125,-9.783433959585428,-0.6253739053610712,-0.2524083885349333
1728303253997744000,9.401744140625,-9.783628020852804,-0.622620003543049,-0.2516912897741422
1728303254007804200,9.41180419921875,-9.783911513969302,-0.6188230954781174,-0.25004087395230307
1728303254017864200,9.4218642578125,-9.784185070213676,-0.6151039288245141,-0.24849969065859911
1728303254027924000,9.431924072265625,-9.78443466106057,-0.6113666054597124,-0.247901121977251
1728303254037984300,9.441984375,-9.784655610334873,-0.6078435824327171,-0.24784661531103774
1728303254048044300,9.452044189453124,-9.784910461878775,-0.6037134238254278,-0.24788484669588504
1728303254058104000,9.46210400390625,-9.785170574119686,-0.5996792729385196,-0.2473871811057441
1728303254068164000,9.4721640625,-9.785413150703906,-0.5959557954359799,-0.24680916202208025
1728303254078224100,9.48222412109375,-9.785669755813478,-0.5923061868872493,-0.24540068346364421
1728303254088284000,9.492283935546874,-9.78590824074447,-0.5885155624326318,-0.24502742970446123
1728303254098344200,9.50234423828125,-9.78609704131484,-0.5852904629062861,-0.24520821136515586
1728303254108404200,9.512404296875,-9.786273566925525,-0.5823958374433219,-0.24504732171501964
1728303254118464300,9.52246435546875,-9.786460613930224,-0.5793620592379942,-0.2447819122444838
1728303254128524000,9.53252392578125,-9.786633632409572,-0.5763126085394993,-0.2450595418757759
1728303254138584000,9.542583984375,-9.786770995053649,-0.5735257542999461,-0.24610271251946686
1728303254148644000,9.55264404296875,-9.786928231441975,-0.5703185922890901,-0.24729813284911215
1728303254158704000,9.5627041015625,-9.787121123665571,-0.5663234217057004,-0.24885257748318834
1728303254168764200,9.57276416015625,-9.787259655353427,-0.5631808858962729,-0.2505191772548482
1728303254178824200,9.58282421875,-9.787323952761293,-0.5611622760828584,-0.25251842478066683
1728303254188884000,9.592884033203125,-9.787397017997503,-0.5586355706168339,-0.25529419137062503
1728303254198944000,9.602944091796875,-9.787454885664582,-0.5570231304515153,-0.25658129030540583
1728303254209004300,9.61300439453125,-9.78738182042837,-0.5569116694336756,-0.25959486597292125
1728303254219064300,9.623064208984376,-9.787394095388054,-0.5560548699412494,-0.26097335125189275
1728303254229124000,9.6331240234375,-9.787414553654193,-0.5550525610309094,-0.2623373696140945
1728303254239184100,9.64318408203125,-9.787374806165694,-0.554525285753794,-0.26491996998582035
1728303254249244200,9.653244140625,-9.787353178855776,-0.5542788367120549,-0.2662200014674105
1728303254259304000,9.663303955078124,-9.787302325451373,-0.5538778546957299,-0.2689163278792985
1728303254269364200,9.6733642578125,-9.787291804057359,-0.5530548844076693,-0.27097779045375064
1728303254279424300,9.68342431640625,-9.78725381013453,-0.5526566788703203,-0.27315975586902347
1728303254289484000,9.693484130859375,-9.787184252029657,-0.5524905285231769,-0.2759767312522046
1728303254299544000,9.7035439453125,-9.787223414996266,-0.5508366969015449,-0.2778948946321383
1728303254309604000,9.71360400390625,-9.787209386470913,-0.5500456561217084,-0.2799421825507656
1728303254319664000,9.7236640625,-9.787200618642569,-0.5495974374301731,-0.2811301136936992
1728303254329724200,9.73372412109375,-9.787235105434059,-0.5486557361332699,-0.2817592236437835
1728303254339784200,9.7437841796875,-9.78725322561264,-0.5476852836659177,-0.2830166398263536
1728303254349844200,9.75384423828125,-9.787316353976726,-0.5464542805662378,-0.2832158521928824
1728303254359904000,9.763904052734375,-9.787370714512466,-0.5454645754091442,-0.28325125229982656
1728303254369964000,9.773964111328125,-9.787463068971038,-0.544335754042305,-0.2822156439080834
1728303254380024300,9.7840244140625,-9.787541394904256,-0.5432956704048439,-0.28149942193012684
1728303254390084000,9.794083984375,-9.787600431615113,-0.5423502793135121,-0.28127692001955584
1728303254400144100,9.80414404296875,-9.787691617029905,-0.5409319734808057,-0.28083796234671027
1728303254410204200,9.8142041015625,-9.787782217922807,-0.5398815145798027,-0.27970782580561937
1728303254420264200,9.82426416015625,-9.78788567829728,-0.5389738982155918,-0.2778225052493624
1728303254430324000,9.834323974609376,-9.788011935025454,-0.5374529357260093,-0.276315827013459
1728303254440384300,9.84438427734375,-9.788139360797405,-0.5361078047273681,-0.2743994171991944
1728303254450444300,9.8544443359375,-9.788255680653453,-0.535221961803548,-0.27198251051688566
1728303254460504000,9.864504150390625,-9.788370246943831,-0.5343223826153204,-0.2696101736286655
1728303254470564000,9.874564208984374,-9.788467277577519,-0.5333364037852734,-0.26803527072845024
1728303254480627700,9.884627685546874,-9.788587104564904,-0.5320838099082932,-0.2661497127101756
1728303254490687700,9.894687744140626,-9.78867127571702,-0.5311647223019972,-0.2648773729531094
1728303254500747800,9.904747802734375,-9.788754862347245,-0.5303879292432219,-0.26335104016866534
1728303254510807800,9.914807861328125,-9.788812730014323,-0.5301254789147526,-0.2617124243824743
1728303254520867800,9.924867919921875,-9.788905084472894,-0.5288595140995458,-0.2608159322004765
1728303254530927600,9.934927734375,-9.789020235285163,-0.527721449980326,-0.2587965004031546
1728303254540987600,9.944987548828125,-9.789065827992557,-0.5276498460488394,-0.2572239355904981
1728303254551047700,9.955047607421875,-9.78919266924262,-0.5261648316554725,-0.25541396355908363
1728303254561107700,9.965107666015625,-9.789264565435051,-0.525387307944335,-0.2542698898241855
1728303254571167700,9.975167724609374,-9.789368610331415,-0.5244495156375691,-0.2521870374018326
1728303254581227800,9.985227783203126,-9.789452781483531,-0.5243547134935855,-0.2491013646124862
1728303254591287800,9.995287841796875,-9.789611771437524,-0.5224096803730354,-0.24693286146698518
1728303254601347600,10.00534765625,-9.789688928326964,-0.5222060840923339,-0.24429142531380055
1728303254611408000,10.015407958984374,-9.789781867307424,-0.5210023708583786,-0.24312324005095287
1728303254621468000,10.025468017578126,-9.789840904018282,-0.520365132400766,-0.24212136953203006
1728303254631527700,10.035527587890625,-9.789895849075913,-0.5192794195232913,-0.2422289946249686
1728303254641587700,10.045587646484375,-9.789960146483779,-0.5179854341899975,-0.24239344620537012
1728303254651647700,10.055647705078124,-9.789977097618578,-0.5172002020964399,-0.2433788770461455
1728303254661707500,10.06570751953125,-9.7900495783329,-0.5159024539034813,-0.24323135833423584
1728303254671767800,10.075767822265625,-9.790097509127854,-0.514352119188942,-0.24456874441783874
1728303254681827800,10.085827880859375,-9.790174666017293,-0.5122031609941273,-0.2460001106615178
1728303254691887900,10.095887939453124,-9.790245393165945,-0.5105207243325188,-0.24668274089712647
1728303254701947600,10.10594775390625,-9.790324888142942,-0.5084179068343714,-0.24786499121794475
1728303254712007700,10.116007568359375,-9.790398537901043,-0.5063935613999143,-0.24908832246782256
1728303254722067700,10.126067626953125,-9.790430686604976,-0.5044267548389733,-0.25180914400015025
1728303254732127700,10.136127685546874,-9.790451144871115,-0.5033186474665999,-0.2532229928534478
1728303254742187800,10.146187744140626,-9.79051836488843,-0.500775538855046,-0.25566150857936587
1728303254752247800,10.156247802734375,-9.790548760026693,-0.4991930189039558,-0.25757031960906457
1728303254762307600,10.1663076171875,-9.790542330285906,-0.4978637065289542,-0.26038764205211773
1728303254772367600,10.17636767578125,-9.790594352734088,-0.4955927293896675,-0.2627539145257324
1728303254782428000,10.186427978515624,-9.790584415861964,-0.49404732657857237,-0.26601503521353004
1728303254792488000,10.196488037109376,-9.790576232555509,-0.4923480483800173,-0.2694399133619852
1728303254802547700,10.206547607421875,-9.790549344548582,-0.49139348760154095,-0.272134778469149
1728303254812607700,10.216607666015625,-9.790525379151106,-0.49013756925631313,-0.2752452203735709
1728303254822667800,10.226667724609374,-9.790494984012842,-0.48921913923714305,-0.2779572740775533
1728303254832727600,10.2367275390625,-9.790427763995527,-0.48859665995724494,-0.28138763211872425
1728303254842787800,10.246787841796875,-9.790415489035844,-0.4876869977664202,-0.28339818648984655
1728303254852847900,10.256847900390625,-9.790316120314598,-0.48772513781972227,-0.28673750524669883
1728303254862907600,10.26690771484375,-9.790285725176334,-0.4871160294780507,-0.28879951581042257
1728303254872967700,10.2769677734375,-9.790193955239653,-0.48755500541720537,-0.2911628656745888
1728303254883027700,10.28702783203125,-9.790137841138243,-0.48782063408344983,-0.29261047066701573
1728303254893087700,10.297087646484375,-9.790082311558724,-0.48776554289534685,-0.2945425529744476
1728303254903147800,10.307147705078124,-9.790018598672747,-0.4883686964202672,-0.29566446967646476
1728303254913207800,10.317207763671876,-9.789970083355904,-0.4885995825666934,-0.2968814077181741
1728303254923267800,10.327267822265625,-9.789965407180786,-0.48870837670341133,-0.2968514327050186
1728303254933327600,10.33732763671875,-9.789945533436537,-0.4888671474616974,-0.2972447794041596
1728303254943387600,10.3473876953125,-9.789943779870868,-0.48906102606598284,-0.29699557214975353
1728303254953448000,10.357447998046876,-9.789953716742993,-0.4891126466553658,-0.2965707891327329
1728303254963507700,10.3675078125,-9.789998724928498,-0.4892619919981807,-0.2948467052864842
1728303254973567700,10.377567626953125,-9.790034965285658,-0.4891146559493616,-0.29388533117473126
1728303254983627800,10.387627685546875,-9.79010452339053,-0.4887121760956943,-0.29223906180504705
1728303254993687800,10.397687744140624,-9.790187525498867,-0.48803358271438624,-0.2905763527572155
1728303255003747600,10.40774755859375,-9.790257668125628,-0.4876450948534533,-0.2888569085534662
1728303255013807900,10.417807861328125,-9.790345346409081,-0.4868668039573356,-0.287206456199009
1728303255023868000,10.427867919921875,-9.79045874365568,-0.48557431646138427,-0.28551817431850357
1728303255033927700,10.437927734375,-9.790548760026693,-0.4848262380404398,-0.2836985759422183
1728303255043987700,10.44798779296875,-9.790669171535969,-0.48363056198246773,-0.2815757568356581
1728303255054047700,10.4580478515625,-9.790782568782568,-0.4826771337151527,-0.2792552231999114
1728303255064107800,10.468107666015625,-9.790903564813732,-0.4813436566216871,-0.27730792505703866
1728303255074167800,10.478167724609374,-9.790993581184745,-0.48064146316908296,-0.2753453745461069
1728303255084227800,10.488227783203126,-9.791111070084572,-0.47951582014001903,-0.27312218207130207
1728303255094288000,10.498287841796875,-9.79120634715259,-0.47882882425654677,-0.2708993366563692
1728303255104347600,10.50834765625,-9.79128175047636,-0.47787937804460523,-0.2698382284971885
1728303255114407700,10.51840771484375,-9.791361245453357,-0.4774323649294674,-0.2677542252973653
1728303255124468000,10.528468017578126,-9.791461783218383,-0.47581707521993666,-0.2669321500584483
1728303255134527700,10.53852783203125,-9.791551215067505,-0.47540582753792404,-0.2643736246820539
1728303255144587800,10.548587890625,-9.791624864825605,-0.4744224790563807,-0.263419557093922
1728303255154647800,10.558647705078124,-9.791720141893625,-0.47319238927215335,-0.262092875067424
1728303255164707600,10.56870751953125,-9.791743522769211,-0.4726130550142377,-0.26226569261737165
1728303255174767600,10.578767578125,-9.791844645056129,-0.47108025595638897,-0.2612414093372412
1728303255184828000,10.588827880859375,-9.79184172244668,-0.4710944306122139,-0.2613208860479295
1728303255194887700,10.5988876953125,-9.791958042302728,-0.46909448896665124,-0.26055892523210494
1728303255204947700,10.60894775390625,-9.792049812239409,-0.4677657611135393,-0.25949633750189094
1728303255215007700,10.6190078125,-9.792126969128846,-0.4664603045381605,-0.2589282918229699
1728303255225067800,10.62906787109375,-9.792206464105844,-0.46504050086811183,-0.2584741183146834
1728303255235127800,10.6391279296875,-9.792342657706142,-0.4625164622832089,-0.2578559316174127
1728303255245187800,10.649187744140624,-9.792444364514946,-0.4602941831238568,-0.2579710093644447
1728303255255248000,10.659247802734376,-9.792554254630208,-0.4578790848061442,-0.2580980698102154
1728303255265307600,10.6693076171875,-9.792688110142945,-0.4554619406618178,-0.25729838906619695
1728303255275367700,10.67936767578125,-9.792762344422936,-0.4534377413578331,-0.2580385581753217
1728303255285427700,10.689427734375,-9.79290438324213,-0.4504943083170801,-0.2577973332979716
1728303255295487700,10.69948779296875,-9.793007843616603,-0.448280029801093,-0.25774406874077394
1728303255305547800,10.7095478515625,-9.793114226600528,-0.4459090994186699,-0.2577961825205013
1728303255315607800,10.71960791015625,-9.793218271496892,-0.4435092352027073,-0.25799040818465874
1728303255325667800,10.729667724609374,-9.7933538805753,-0.44071682800520207,-0.25762707303129134
1728303255335727600,10.7397275390625,-9.7934444814682,-0.43854843445755537,-0.25789253730075434
1728303255345787600,10.74978759765625,-9.793531575229764,-0.436273402197659,-0.25842779495492574
1728303255355848000,10.759847900390625,-9.793615746381878,-0.4344270802112296,-0.2583664932217449
1728303255365907700,10.76990771484375,-9.79363211299479,-0.43327834856752306,-0.25966113614216446
1728303255375967700,10.7799677734375,-9.793676536658406,-0.43198421710375695,-0.26013666296573357
1728303255386027800,10.79002783203125,-9.793697579446434,-0.4313814289050176,-0.260360699246265
1728303255396087600,10.800087646484375,-9.793673614048958,-0.4306906701618805,-0.2623832180498168
1728303255406147800,10.81014794921875,-9.79370576275289,-0.4296170861136168,-0.2629397924866527
1728303255416208000,10.820207763671876,-9.793708685362338,-0.42889911056999114,-0.2639967907262966
1728303255426268000,10.830267822265625,-9.793692903271317,-0.4288317809548229,-0.26469768727095794
1728303255436327700,10.84032763671875,-9.793670691439509,-0.42888555696867403,-0.26543117091096935
1728303255446387700,10.8503876953125,-9.793608732119202,-0.42936588783152396,-0.26693704542927443
1728303255456447700,10.86044775390625,-9.793627436819673,-0.42905839278493074,-0.2667470210161991
1728303255466507800,10.8705078125,-9.793653155782819,-0.4284579426737502,-0.26677496846904974
1728303255476563500,10.8805634765625,-9.79366601526439,-0.42798616044353693,-0.2670563244273886
1728303255486623200,10.890623291015626,-9.793643803432584,-0.42787152108792215,-0.2680584872072562
1728303255496683300,10.900683349609375,-9.793642634388803,-0.4278599037153646,-0.26811352359643204
1728303255506743600,10.91074365234375,-9.793637958213687,-0.4280271135084331,-0.2680261375739239
1728303255516803300,10.92080322265625,-9.793595288115739,-0.42886312594115733,-0.26823596266601235
1728303255526863400,10.93086328125,-9.793531575229764,-0.4300149628574028,-0.26872918954305347
1728303255536923400,10.94092333984375,-9.793529821664094,-0.43034382948558775,-0.2682539001815021
1728303255546983400,10.9509833984375,-9.79348189086914,-0.4309617787208408,-0.2690093216586858
1728303255557043200,10.961043212890624,-9.793417008939384,-0.43229825148899104,-0.26922588701881467
1728303255567103500,10.971103515625,-9.793349788922072,-0.4336175904592499,-0.2695571647997945
1728303255577163500,10.98116357421875,-9.793270293945074,-0.4350737806169316,-0.2700995463144965
1728303255587223300,10.991223388671875,-9.793192552533744,-0.4369632476253435,-0.2698738112672232
1728303255597283300,11.001283447265624,-9.793087338593601,-0.4395509625636041,-0.2694866568468511
1728303255607343400,11.01134326171875,-9.793027132838963,-0.44122291436381633,-0.2689302102741785
1728303255617403400,11.0214033203125,-9.792968680649995,-0.4428570549042895,-0.26838417549766597
1728303255627463400,11.03146337890625,-9.792869896450638,-0.4447673455050215,-0.26881752541363235
1728303255637523500,11.0415234375,-9.792760590857267,-0.4470919525276869,-0.26894524344652887
1728303255647583500,11.05158349609375,-9.79266180665791,-0.44949280312433837,-0.2685505998394452
1728303255657643300,11.061643310546875,-9.792540810626745,-0.45216001303959635,-0.26847000888390465
1728303255667703300,11.071703369140625,-9.792443779993057,-0.4544552113046869,-0.26814141625035554
1728303255677763600,11.081763671875,-9.792319276830554,-0.45688225578851993,-0.26856064630942417
1728303255687822300,11.091822265625,-9.792236859244108,-0.459121814876236,-0.26774251659326254
1728303255697883400,11.10188330078125,-9.792177238011359,-0.461057751374878,-0.2666025710442103
1728303255707943400,11.111943359375,-9.79208546807468,-0.4636927760535851,-0.2653870943072252
1728303255718003200,11.122003173828125,-9.791977331525088,-0.4673040618859231,-0.26304549961714074
1728303255728062500,11.1320625,-9.791881469935179,-0.47047586032245303,-0.260949531984888
1728303255738122500,11.14212255859375,-9.791856920015812,-0.47246758212894197,-0.25825875853095204
1728303255748182300,11.152182373046875,-9.791809573742746,-0.4746358295461163,-0.2560659246617928
1728303255758242300,11.1622421875,-9.79178560834527,-0.476570998859778,-0.2533702558370307
1728303255768302300,11.17230224609375,-9.791753459641336,-0.4782673909815028,-0.2514142081321217
1728303255778362400,11.1823623046875,-9.791723649024963,-0.47969355132710184,-0.24985154365897178
1728303255788422400,11.19242236328125,-9.791683901536464,-0.48114787832126016,-0.2486213260105811
1728303255798482400,11.202482421875,-9.791664612314104,-0.48199832113813607,-0.24772236787686122
1728303255808542500,11.21254248046875,-9.791669288489222,-0.4825021790070459,-0.246552611711435
1728303255818602200,11.222602294921876,-9.791699099105596,-0.48232181747145947,-0.24571725686583668
1728303255828662300,11.232662353515625,-9.791776840516924,-0.48164019188284873,-0.2439419177563861
1728303255838722600,11.24272265625,-9.7918575045377,-0.4806959698352962,-0.24258010961757973
1728303255848782300,11.2527822265625,-9.791945182821154,-0.4794828311858698,-0.24142628167364744
1728303255858842400,11.26284228515625,-9.79204572058618,-0.4782875935193151,-0.23971889323387294
1728303255868902400,11.27290234375,-9.792151519048213,-0.47699251220747824,-0.23798151151463387
1728303255878962200,11.282962158203125,-9.792236274722217,-0.47589149216301735,-0.23668089551115407
1728303255889022500,11.2930224609375,-9.792295311433076,-0.4745934151764959,-0.23683836936149744
1728303255899082500,11.30308251953125,-9.79236428501606,-0.4736173732185736,-0.23594401433765888
1728303255909142500,11.313142578125,-9.79245547043085,-0.47200310642234977,-0.2354046650302596
1728303255919202300,11.323202392578125,-9.792525028535723,-0.47079563032872973,-0.23493081870712337
1728303255929262300,11.333262451171874,-9.792555423673987,-0.46987628699410705,-0.2354945170044899
1728303255939322400,11.343322265625,-9.792573543852567,-0.4689988100398332,-0.23647914412766693
1728303255949382400,11.35338232421875,-9.79258698785603,-0.46797070910111066,-0.23795761918239294
1728303255959442400,11.3634423828125,-9.79253262732029,-0.46851654294822365,-0.23912406914588064
1728303255969502500,11.37350244140625,-9.79243618120849,-0.47004576180949803,-0.2400730404337868
1728303255979562200,11.383562255859376,-9.79230466378331,-0.47180550149101763,-0.24198477407293392
1728303255989622300,11.393622314453125,-9.79221347836852,-0.4734498346319422,-0.24245978943984955
1728303255999682300,11.403682373046875,-9.792050396761297,-0.4761252278536558,-0.2438026006172411
1728303256009742300,11.413742431640625,-9.791847567665576,-0.4792050736904144,-0.24589721654262392
1728303256019802400,11.42380224609375,-9.791610251778364,-0.48242217257339504,-0.2490425836299546
1728303256029862400,11.4338623046875,-9.79137468945682,-0.4862019103078171,-0.2509343887259252
1728303256039922400,11.44392236328125,-9.791177121058105,-0.48937608336452393,-0.25248253148337824
1728303256049982200,11.453982177734375,-9.790922269514203,-0.49328306420780715,-0.2547472615449689
1728303256060042500,11.46404248046875,-9.790696059542894,-0.49648931290321047,-0.25719849062198774
1728303256070102500,11.4741025390625,-9.790473941224812,-0.5001517809335142,-0.25856826287154105
1728303256080162300,11.484162353515625,-9.790250653862953,-0.5034049375105649,-0.2606980962407775
1728303256090222300,11.494222412109375,-9.790034965285658,-0.5068728328168391,-0.2620726359969936
1728303256100282400,11.504282470703124,-9.789852594456075,-0.5098170695751905,-0.2631587142006494
1728303256110342100,11.514342041015626,-9.78969594258964,-0.5127309111952781,-0.26332422522697596
1728303256120402400,11.52440234375,-9.789563256120681,-0.514953080756776,-0.2639193963748403
1728303256130462500,11.53446240234375,-9.789438752958178,-0.5173155355717987,-0.26392357935961336
1728303256140522500,11.5445224609375,-9.789374455550313,-0.5186432770442218,-0.2636971136599779
1728303256150582300,11.554582275390626,-9.789296714138985,-0.5197224505830556,-0.26446758657582103
1728303256160642300,11.564642333984375,-9.789206697767973,-0.5211331941638142,-0.2650202885551378
1728303256170702300,11.574702392578125,-9.789191500198841,-0.5211860933948308,-0.26547986889090386
1728303256180762400,11.584762451171875,-9.789161689582466,-0.5217433254187926,-0.26549420794351025
1728303256190822400,11.594822509765624,-9.789131294444203,-0.5219429761767387,-0.26622144450582563
1728303256200882400,11.60488232421875,-9.789135386097431,-0.5224100822318345,-0.26513761305818334
1728303256210942200,11.614942138671875,-9.789114343309402,-0.5224559306675568,-0.26582086434829977
1728303256221002200,11.625002197265625,-9.789110836178065,-0.5226411510413512,-0.26558245248254386
1728303256231062500,11.6350625,-9.789076349386573,-0.523034424675256,-0.2660974162673578
1728303256241122600,11.64512255859375,-9.789068750602006,-0.523879351066798,-0.26470309409843756
1728303256251182300,11.655182373046875,-9.78902549598217,-0.5246540617663413,-0.26476698964750395
1728303256261242400,11.665242431640625,-9.7890067912817,-0.5255379319287836,-0.2637030867430381
1728303256271302400,11.675302490234374,-9.788941909351944,-0.5265438575683161,-0.26410973131516946
1728303256281362200,11.685362060546876,-9.788906838038564,-0.5281718240963295,-0.26215613129567356
1728303256291422500,11.69542236328125,-9.788809807404876,-0.5299559675667435,-0.26217496386030686
1728303256301482500,11.705482421875,-9.788725051730871,-0.532140581596829,-0.26091427800841627
1728303256311542300,11.715542236328124,-9.788563139167428,-0.5345287919076159,-0.26209521315498274
1728303256321602300,11.725602294921876,-9.7884626014024,-0.536952365792729,-0.26090421327212826
1728303256331662300,11.735662353515625,-9.788270878222583,-0.5399994053384288,-0.26179951814403757
1728303256341722400,11.745722412109375,-9.788134100100397,-0.5430514133201911,-0.2605958597090095
1728303256351782400,11.755782470703124,-9.787944130486249,-0.5460673270752653,-0.2614176792195998
1728303256361842400,11.765842529296876,-9.787744808521866,-0.5501941246816888,-0.26023754779063163
1728303256371902500,11.77590234375,-9.787442026183008,-0.5549064305584878,-0.26162165909279134
1728303256381962200,11.785962158203125,-9.787254979178309,-0.5589218036796897,-0.26006856616558505
1728303256392022300,11.796022216796874,-9.786915956482291,-0.5642388705166056,-0.26132210989063603
1728303256402082600,11.80608251953125,-9.786739430871606,-0.5678011661080643,-0.26022275208029894
1728303256412142300,11.816142333984375,-9.786520819684862,-0.570831802508235,-0.26181044139685106
1728303256422202400,11.826202392578125,-9.78644833897054,-0.5725185500187799,-0.2608325728080235
1728303256432262400,11.836262451171875,-9.786352477380634,-0.5738221799632534,-0.2615654171272181
1728303256442322400,11.846322509765624,-9.786360076165199,-0.5742301762422546,-0.2603806643220596
1728303256452382200,11.85638232421875,-9.786341955986618,-0.574443453666754,-0.2606006454819813
1728303256462442500,11.8664423828125,-9.786420866441727,-0.5742722983509302,-0.25799132150011134
1728303256472502500,11.87650244140625,-9.786434894967078,-0.5739893166910857,-0.2580963893097825
1728303256482563000,11.88656298828125,-9.786530756556987,-0.573078302793391,-0.2564689159721136
1728303256492623000,11.896623046875,-9.786566412392258,-0.5726455739319324,-0.25607686618091535
1728303256502683000,11.906682861328125,-9.786644738325476,-0.5720860038204119,-0.2543363791891374
1728303256512743000,11.916742919921875,-9.786641815716028,-0.5714281244335696,-0.25592700938144697
1728303256522802200,11.92680224609375,-9.786718388083576,-0.5707915435630828,-0.2544057363646105
1728303256532862000,11.936862060546876,-9.786645907369255,-0.5712259529249742,-0.25620617338269946
1728303256542922000,11.946921875,-9.786651168066262,-0.5714174569090827,-0.2555834201081656
1728303256552982000,11.95698193359375,-9.786555890998244,-0.5719575186025351,-0.25800874755894765
1728303256563042000,11.9670419921875,-9.786512051856517,-0.5728790904268622,-0.2576452114761807
1728303256573102000,11.97710205078125,-9.78643314140141,-0.573572516051121,-0.25908856041859835
1728303256583162000,11.987162109375,-9.786377611821889,-0.5750189885323866,-0.2579846908299252
1728303256593222000,11.997221923828125,-9.78624609439671,-0.5771558909632265,-0.258189784947969
1728303256603282000,12.007281982421874,-9.786154908981919,-0.579213298417069,-0.2570443229735829
1728303256613341200,12.017341064453126,-9.7860029332906,-0.5810857777580618,-0.2585888490018435
1728303256623401000,12.02740087890625,-9.78589187413156,-0.5830034479476511,-0.25848801897587254
1728303256633461000,12.0374609375,-9.785755680531263,-0.5852580219414085,-0.258532552237343
1728303256643521000,12.04752099609375,-9.785624747627972,-0.5874283882504329,-0.2585760077865794
1728303256653580800,12.057580810546876,-9.785475694546102,-0.5893782802091911,-0.2597737844700925
1728303256663641000,12.06764111328125,-9.78533307120502,-0.5914114300046116,-0.2605314892359078
1728303256673701000,12.077701171875,-9.785203891867399,-0.5932586287738755,-0.261178609766718
1728303256683761200,12.08776123046875,-9.785037303128838,-0.5953619211960584,-0.2626375398707576
1728303256693821000,12.097821044921876,-9.784881235784292,-0.5975760535815731,-0.26341652488661926
1728303256703881000,12.107880859375,-9.784687759038805,-0.5998745763149113,-0.265361375344079
1728303256713941000,12.11794091796875,-9.78451181795001,-0.6022405017286538,-0.26650342151867223
1728303256724001000,12.1280009765625,-9.784330031642318,-0.6043950859466567,-0.26829273435454815
1728303256734061000,12.13806103515625,-9.784149998900293,-0.6065676076801494,-0.26994678517188875
1728303256744121000,12.14812109375,-9.783997438687086,-0.6084565266992896,-0.2712248605499975
1728303256754180900,12.158180908203125,-9.783832018992305,-0.6105111211415379,-0.27255424599023537
1728303256764241000,12.168240966796875,-9.78363503511548,-0.6130244922019541,-0.27400066367257386
1728303256774301000,12.178301025390626,-9.783490073686838,-0.6150686383154242,-0.2745913413084112
1728303256784361000,12.18836083984375,-9.783282568415999,-0.6180389593631028,-0.27529738895222544
1728303256794421000,12.1984208984375,-9.783044668006896,-0.6209216751925647,-0.2772697484711185
1728303256804481000,12.20848095703125,-9.782895614925026,-0.6233307090956718,-0.27712458611307667
1728303256814541000,12.218541015625,-9.782734286883473,-0.6258841199055314,-0.2770526899206452
1728303256824600800,12.228600830078125,-9.782610368242858,-0.6282866510026156,-0.2760004591876641
1728303256834661000,12.2386611328125,-9.782375390443205,-0.6313707346230745,-0.2772821695612743
1728303256844721200,12.24872119140625,-9.782278944331408,-0.6330976314809172,-0.27675403576763347
1728303256854781000,12.258781005859374,-9.782126384118198,-0.6350326181314885,-0.277713528449554
1728303256864841000,12.268841064453126,-9.781990775039791,-0.6369716233700513,-0.27804230374619365
1728303256874901000,12.27890087890625,-9.781884976577759,-0.6387597488958389,-0.27765376108633355
1728303256884960800,12.288960693359375,-9.781789699509739,-0.6402503527797758,-0.2775821388885379
1728303256895021000,12.29902099609375,-9.78161901911795,-0.6424952090971171,-0.2784074837967753
1728303256905081000,12.3090810546875,-9.781475811254978,-0.6447272059328853,-0.27828080694349483
1728303256915141000,12.31914111328125,-9.781279411900043,-0.6476037842825054,-0.27850495282188054
1728303256925201000,12.329200927734375,-9.781067814975977,-0.6505237633824348,-0.2791327110650949
1728303256935261000,12.339260986328124,-9.78083751335144,-0.653338674672693,-0.2806221641715616
1728303256945321000,12.349321044921876,-9.780629423558711,-0.6564652091953903,-0.28059014333179216
1728303256955381000,12.359381103515625,-9.7804827085644,-0.6589366408102214,-0.2798974848925136
1728303256965441000,12.36944091796875,-9.780326641219855,-0.6617994828954339,-0.2786060385761782
1728303256975501000,12.3795009765625,-9.78018343335688,-0.6638379299204796,-0.2787666907642968
1728303256985560800,12.389560791015626,-9.780105107423662,-0.6651459437791257,-0.27839619521778075
1728303256995620900,12.399620849609375,-9.780003985136746,-0.667100000456348,-0.27728123797951265
1728303257005681200,12.40968115234375,-9.779911630678177,-0.6687082393705844,-0.27665349800260736
1728303257015741200,12.4197412109375,-9.77979355725646,-0.6702304805018008,-0.2771484967116266
1728303257025801000,12.429801025390624,-9.779639243477583,-0.6718234487816691,-0.27873560150628907
1728303257035861000,12.439861083984376,-9.779489021351933,-0.6732937405299395,-0.2804520865679718
1728303257045921000,12.449921142578125,-9.779315418350697,-0.6751587306842207,-0.28202810371303927
1728303257055980800,12.459980712890625,-9.779147076046467,-0.6767535255949944,-0.28402399023799224
1728303257066041000,12.470041015625,-9.779031925234198,-0.6776061238363384,-0.28595793570894745
1728303257076101000,12.48010107421875,-9.778926711294055,-0.6783705323375762,-0.28773093673083927
1728303257086161000,12.490160888671875,-9.778826758050918,-0.6795923292174935,-0.2882486952609382
1728303257096221000,12.500220947265625,-9.778746094030142,-0.6807384305126964,-0.2882786337414756
1728303257106281000,12.510281005859374,-9.778642049133778,-0.6817262725062668,-0.28947469339193777
1728303257116341000,12.520341064453126,-9.778592949295044,-0.682554686154425,-0.28918181139258664
1728303257126401000,12.530401123046875,-9.77848539726734,-0.6843691882304846,-0.2885202787439339
1728303257136461000,12.5404609375,-9.778389535677432,-0.6861497149717062,-0.2875331491364166
1728303257146521000,12.55052099609375,-9.77830244191587,-0.6875191036287694,-0.28723663214156403
1728303257156580900,12.560580810546876,-9.77822762311399,-0.6884010010298341,-0.2876635340504348
1728303257166641000,12.570640869140625,-9.778234052854776,-0.6889164032060653,-0.2862084216049872
1728303257176701200,12.580701171875,-9.778147543615102,-0.6899184929206967,-0.28675774431712925
1728303257186761000,12.590760986328124,-9.77818904466927,-0.6899031492210924,-0.2853802454188466
1728303257196821000,12.600821044921876,-9.77818904466927,-0.6898663974072784,-0.2854688004851341
1728303257206881000,12.610881103515625,-9.778143451961874,-0.6900728797648101,-0.2865266024423763
1728303257216941000,12.620941162109375,-9.778256264686584,-0.689341569815576,-0.28442250630259513
1728303257227000800,12.631000732421874,-9.778257433730364,-0.6893526757314801,-0.2843520348822698
1728303257237061000,12.64106103515625,-9.7782837372154,-0.689116601953283,-0.2840341645721346
1728303257247121200,12.65112109375,-9.778315885919332,-0.6883494900383055,-0.2847663695705123
1728303257257181000,12.661180908203125,-9.778324069225787,-0.6881162658043205,-0.2850609503366053
1728303257267241000,12.671240966796875,-9.778309456178546,-0.688273063801229,-0.2851846497815102
1728303257277301000,12.681301025390624,-9.778300103828311,-0.6881487067691981,-0.2858016857013106
