time,seconds_elapsed,z,y,x
1728303244752605400,0.15660546875,0.014580884948372841,-0.014007962308824062,-0.0061250063590705395
1728303244762665500,0.16666552734375,0.016513807699084282,-0.0012274514883756638,-0.002398178679868579
1728303244772725500,0.1767255859375,0.016508115455508232,-0.01994689553976059,0.00015540781896561384
1728303244782785500,0.18678564453125,0.01042146049439907,-0.0013535041362047195,-0.007602380588650703
1728303244792845600,0.196845458984375,0.014265150763094425,-0.004219639115035534,0.001375076244585216
1728303244802905600,0.206905517578125,0.013250485993921757,-0.0027429163455963135,0.00011167267803102732
1728303244812965600,0.216965576171875,0.011709232814610004,-0.0019297413527965546,-0.00110645592212677
1728303244823025400,0.227025390625,0.010063398629426956,-0.0013600904494524002,0.004049424082040787
1728303244833085400,0.23708544921875,0.01543236430734396,-0.006914268713444471,-0.0016082562506198883
1728303244843145700,0.247145751953125,0.009612824767827988,-0.011688783764839172,0.001742000225931406
1728303244853205500,0.25720556640625,0.01106899045407772,-0.0001701214350759983,0.00688210828229785
1728303244863265500,0.267265625,0.01586933806538582,0.00853095855563879,-0.0017579853301867843
1728303244873325600,0.27732568359375,0.009350568987429142,0.004081754945218563,0.00012309313751757145
1728303244883385600,0.287385498046875,0.007002726197242737,-0.0012621437199413776,0.007742130663245916
1728303244893445400,0.2974453125,0.014511523768305779,0.012243865989148617,-0.0002071706112474203
1728303244903505700,0.307505615234375,0.006815255153924227,0.01679947040975094,0.008865686133503914
1728303244913565700,0.317565673828125,0.008909533731639385,-0.001345556229352951,0.006634286604821682
1728303244923625500,0.32762548828125,0.008134021423757076,0.015356458723545074,-0.0021312416065484285
1728303244933685500,0.337685546875,0.003288897452875972,0.02029290795326233,0.0017819165950641036
1728303244943745500,0.34774560546875,-0.007149895187467337,0.02295340597629547,-0.011754664592444897
1728303244953805600,0.3578056640625,-0.04708161577582359,0.014276627451181412,-0.07543496787548065
1728303244963865600,0.367865478515625,-0.1208069697022438,0.002330220304429531,-0.16028034687042236
1728303244973925600,0.377925537109375,-0.18874815106391907,-0.043180618435144424,-0.2809559404850006
1728303244983985700,0.387985595703125,-0.05093808472156525,-0.40730157494544983,0.06922070682048798
1728303244994045400,0.39804541015625,-0.06732220947742462,-0.25885289907455444,0.1171538382768631
1728303245004104700,0.408104736328125,-0.0560154914855957,-0.02486303821206093,0.015606435015797615
1728303245014164500,0.41816455078125,0.012833666056394577,0.001528274267911911,0.0029893936589360237
1728303245024224500,0.428224609375,0.013510642573237419,0.014752999879419804,0.0028253430500626564
1728303245034284500,0.438284423828125,0.01597624644637108,-0.0026941257528960705,-0.0023858710192143917
1728303245044344600,0.448344482421875,0.008148684166371822,-0.0033684377558529377,0.0001502573722973466
1728303245054404600,0.458404541015625,0.010250510647892952,0.015583636239171028,-0.0053365170024335384
1728303245064464600,0.468464599609375,0.011603929102420807,-0.025999760255217552,-0.0014927765587344766
1728303245074524700,0.478524658203125,0.00855992641299963,-0.015148090198636055,-0.014515179209411144
1728303245084584400,0.48858447265625,0.011590071022510529,-0.017060505226254463,-0.006489742547273636
1728303245094644500,0.49864453125,0.015703022480010986,-0.02802872098982334,-0.006744431797415018
1728303245104704500,0.50870458984375,0.006808064877986908,-0.02801300771534443,-0.017241016030311584
1728303245114764500,0.5187646484375,0.001233153510838747,-0.04500172287225723,-0.004562325309962034
1728303245124824600,0.528824462890625,0.010416798293590546,-0.024481797590851784,-0.015828829258680344
1728303245134884600,0.538884521484375,0.008657393977046013,-0.032588742673397064,-0.010446025058627129
1728303245144944400,0.5489443359375,0.00839587114751339,-0.03750280663371086,-0.004384137224406004
1728303245155004400,0.55900439453125,0.008763207122683525,-0.05446099117398262,-0.005359767470508814
1728303245165064400,0.569064453125,0.006815104279667139,-0.0324116125702858,-0.007960343733429909
1728303245175124700,0.579124755859375,0.006144750863313675,-0.02048623003065586,0.00028098165057599545
1728303245185184500,0.5891845703125,0.010953620076179504,-0.022422349080443382,-0.004873034078627825
1728303245195244500,0.59924462890625,0.009848739951848984,-0.01861819252371788,-0.008913555182516575
1728303245205304600,0.6093046875,0.010299347341060638,-0.02396022528409958,0.0025209933519363403
1728303245215364400,0.6193642578125,0.014033868908882141,-0.010676223784685135,-0.002470770152285695
1728303245225424600,0.629424560546875,0.013578468933701515,0.016322636976838112,-0.006117702927440405
1728303245235484700,0.639484619140625,0.01143345795571804,-0.006039477419108152,0.0009856271790340543
1728303245245544400,0.64954443359375,0.016765106469392776,-0.024187855422496796,-0.0008466276340186596
1728303245255604500,0.6596044921875,0.015397125855088234,0.0022275359369814396,-0.00908895954489708
1728303245265664500,0.66966455078125,0.012530231848359108,0.0021862569265067577,0.0071123805828392506
1728303245275724500,0.679724609375,0.015553267672657967,-0.0029188706539571285,-0.0028545046225190163
1728303245285784600,0.68978466796875,0.008558740839362144,0.0014172885566949844,-0.00487477844581008
1728303245295844600,0.6998447265625,0.007846149615943432,-0.0191322211176157,0.006924806162714958
1728303245305904600,0.709904541015625,0.017877211794257164,0.009521528147161007,-0.00254273135215044
1728303245315964400,0.71996435546875,0.00884801521897316,0.02013337053358555,-0.007241048850119114
1728303245326024400,0.7300244140625,0.002913959324359894,-0.000821712426841259,0.0033697839826345444
1728303245336084500,0.74008447265625,0.010580461472272873,0.005930953659117222,-0.006568461656570435
1728303245346144500,0.75014453125,0.006068267859518528,0.01786537654697895,-0.010676654987037182
1728303245356204500,0.76020458984375,0.003681945614516735,-0.0003558988682925701,0.0001623567077331245
1728303245366264600,0.7702646484375,0.011850925162434578,0.007951299659907818,-0.005464369896799326
1728303245376324600,0.78032470703125,0.0065870871767401695,0.022367971017956734,-0.010422762483358383
1728303245386384400,0.79038427734375,0.007065390236675739,-0.007643457967787981,-0.00259040598757565
1728303245396444700,0.800444580078125,0.009499751031398773,0.005174882244318724,-0.00901004858314991
1728303245406504700,0.810504638671875,0.007487466558814049,0.021312838420271873,-0.008842002600431442
1728303245416564500,0.820564453125,0.007366177625954151,0.0016862680204212666,-0.0025636875070631504
1728303245426624500,0.83062451171875,0.009514549747109413,0.0006210035644471645,-0.005197553895413876
1728303245436684500,0.8406845703125,0.005230063106864691,0.01827367953956127,-0.008815386332571507
1728303245446744300,0.850744384765625,0.009262621402740479,0.008789097890257835,-0.0072579700499773026
1728303245456804600,0.8608046875,0.010232070460915565,0.002472796943038702,-0.006217251066118479
1728303245466865200,0.870865234375,0.008321518078446388,0.02372002974152565,-0.008354970254004002
1728303245476925200,0.88092529296875,0.014710837975144386,-0.0011595599353313446,-0.0014544009463861585
1728303245486984000,0.89098388671875,0.01271506492048502,0.0034413174726068974,-0.0019231172045692801
1728303245497044000,0.9010439453125,0.008017636835575104,0.016078032553195953,-0.0018549604574218392
1728303245507104300,0.911104248046875,0.013803619891405106,0.008494947105646133,0.0053446292877197266
1728303245517164300,0.921164306640625,0.013282764703035355,-0.003573743626475334,0.0023098227102309465
1728303245527224000,0.93122412109375,0.00525226816534996,0.001949918456375599,0.0007116596680134535
1728303245537284000,0.9412841796875,0.009043184109032154,-0.008813189342617989,0.006922991946339607
1728303245547344100,0.95134423828125,0.016950376331806183,0.0034091221168637276,-0.0018017899710685015
1728303245557404200,0.961404052734375,0.008980384096503258,0.01451241597533226,-0.006058260332792997
1728303245567464200,0.971464111328125,0.008316191844642162,-0.02455003187060356,0.006585096940398216
1728303245577524200,0.981524169921875,0.014335907064378262,-0.015513831749558449,-0.00015008903574198484
1728303245587584000,0.991583984375,0.008293726481497288,0.016946639865636826,-0.011882911436259747
1728303245597644000,1.00164404296875,0.012597559951245785,0.003396621672436595,-0.000011368654668331146
1728303245607704000,1.0117041015625,0.01455045584589243,-0.0024636643938720226,-0.0068833897821605206
1728303245617764400,1.021764404296875,0.01072961837053299,0.011620995588600636,-0.013907210901379585
1728303245627824000,1.03182421875,0.010776489973068237,0.003905818099156022,-0.006576593033969402
1728303245637884200,1.04188427734375,0.015889005735516548,0.0061627463437616825,-0.01327534019947052
1728303245647944200,1.051944091796875,0.007406039163470268,0.02002929337322712,-0.018969180062413216
1728303245658004000,1.06200390625,0.010140758939087391,0.01460001990199089,-0.019965194165706635
1728303245668064000,1.07206396484375,0.013240944594144821,0.023771414533257484,-0.0245764572173357
1728303245678124300,1.082124267578125,0.006135585252195597,0.03030930832028389,-0.02729571796953678
1728303245688184000,1.09218408203125,0.010378001257777214,0.008805614896118641,-0.02095659449696541
1728303245698244000,1.102244140625,0.010319313034415245,0.021997801959514618,-0.02370438165962696
1728303245708304100,1.11230419921875,0.0070223198272287846,0.036606304347515106,-0.025364330038428307
1728303245718364200,1.1223642578125,0.009179387241601944,0.006727827247232199,-0.021882737055420876
1728303245728424200,1.132424072265625,0.006750850938260555,0.018080882728099823,-0.03044826164841652
1728303245738484200,1.142484130859375,0.003909559454768896,0.02771884948015213,-0.02545767091214657
1728303245748544300,1.152544189453125,0.005612917244434357,0.02663041464984417,-0.02414073795080185
1728303245758604000,1.16260400390625,0.005399893969297409,0.013658534735441208,-0.022596437484025955
1728303245768664000,1.1726640625,-0.0007485458627343178,0.025306668132543564,-0.023028669878840446
1728303245778724000,1.18272412109375,0.008944828063249588,0.020081546157598495,-0.017438428476452827
1728303245788784000,1.1927841796875,0.010030332952737808,0.019168881699442863,-0.01577315293252468
1728303245798844200,1.20284423828125,0.004459869582206011,0.03616248443722725,-0.015428886748850346
1728303245808904200,1.212904296875,0.012168655171990395,0.014126159250736237,-0.009792571887373924
1728303245818964200,1.222964111328125,0.012643187306821346,0.01972665823996067,-0.010956095531582832
1728303245829024000,1.23302392578125,0.008398907259106636,0.023665206506848335,-0.0027972357347607613
1728303245839084000,1.243083984375,0.011175577528774738,0.016186969354748726,-0.005792536772787571
1728303245849144300,1.253144287109375,0.013847260735929012,0.01121990755200386,0.002900287276133895
1728303245859204000,1.2632041015625,0.008496370166540146,0.02274094708263874,0.0016426178626716137
1728303245869264100,1.27326416015625,0.011809874325990677,0.010497065261006355,-0.000025852583348751068
1728303245879324200,1.28332421875,0.014295058324933052,0.00344139919616282,0.008448071777820587
1728303245889384000,1.293384033203125,0.011018572375178337,0.02542952075600624,0.008072033524513245
1728303245899444200,1.3034443359375,0.01382769737392664,0.0014985548332333565,0.008480959571897984
1728303245909504300,1.313504150390625,0.009551459923386574,-0.002384334336966276,0.010345438495278358
1728303245919564300,1.323564208984375,0.006579688750207424,0.006073641125112772,0.007850117050111294
1728303245929624000,1.3336240234375,0.007366386242210865,-0.010332496836781502,0.006567805074155331
1728303245939684000,1.34368408203125,0.006256064400076866,-0.008950090035796165,0.0066399164497852325
1728303245949744000,1.353744140625,0.0017851493321359158,-0.016470324248075485,0.0115286810323596
1728303245959804200,1.36380419921875,0.005498711485415697,-0.01512858271598816,0.005167781375348568
1728303245969864200,1.3738642578125,0.003135954961180687,0.0022432166151702404,0.0028162100352346897
1728303245979924200,1.38392431640625,0.0036557603161782026,-0.007651125080883503,0.0062424675561487675
1728303245989984000,1.39398388671875,0.0012099132873117924,-0.015197724103927612,-0.0019004135392606258
1728303246000044000,1.4040439453125,0.0025981112848967314,-0.0243978388607502,-0.0022466399241238832
1728303246010104000,1.41410400390625,0.0072274841368198395,-0.009009563364088535,0.005640577524900436
1728303246020164000,1.4241640625,0.010306019335985184,-0.009439285844564438,-0.0029217423871159554
1728303246030224100,1.43422412109375,0.0026201365981251,-0.027365023270249367,-0.004963055718690157
1728303246040284200,1.4442841796875,0.00798589177429676,-0.02300306223332882,-0.0033139968290925026
1728303246050344200,1.45434423828125,0.010249312967061996,-0.023378834128379822,-0.01021770853549242
1728303246060404000,1.464404052734375,0.0089779794216156,-0.025882553309202194,-0.004419779404997826
1728303246070464300,1.47446435546875,0.007048519793897867,-0.021421492099761963,-0.00591754075139761
1728303246080524300,1.484524169921875,0.010815683752298355,-0.02894783765077591,-0.00680865254253149
1728303246090584000,1.494583984375,0.008269702084362507,-0.024234574288129807,-0.00951655488461256
1728303246100644000,1.50464404296875,0.009164797142148018,-0.023592572659254074,-0.0019126294646412134
1728303246110704000,1.5147041015625,0.013918804936110973,-0.013669900596141815,-0.008750295266509056
1728303246120764000,1.524763916015625,0.008199882693588734,-0.017202094197273254,-0.007319439202547073
1728303246130824200,1.53482421875,0.004315928556025028,-0.03449186682701111,0.0035989880561828613
1728303246140884200,1.54488427734375,0.008859419263899326,0.007489475421607494,-0.012841553427278996
1728303246150944300,1.5549443359375,0.004451088607311249,-0.007609316613525152,-0.004996413365006447
1728303246161004000,1.565004150390625,0.002151031279936433,-0.0066128880716860294,-0.003621338400989771
1728303246171064000,1.57506396484375,0.004809665028005838,-0.018849313259124756,-0.0014705694047734141
1728303246181124000,1.5851240234375,-0.001558104995638132,-0.0010262350551784039,-0.0063043879345059395
1728303246191184100,1.59518408203125,-0.001879015937447548,-0.017541827633976936,0.003858767217025161
1728303246201244200,1.605244140625,0.0010835113935172558,-0.015298005193471909,-0.0013728187186643481
1728303246211304200,1.61530419921875,-0.0033860718831419945,-0.005741517525166273,-0.004610157571732998
1728303246221364000,1.625364013671875,-0.0044692205265164375,-0.01144937053322792,0.005893457680940628
1728303246231424000,1.635424072265625,0.0029221170116215944,-0.01861593686044216,0.0015306673012673855
1728303246241484300,1.645484375,-0.004922770895063877,-0.009687213227152824,0.0021062111482024193
1728303246251544300,1.65554443359375,-0.005165916867554188,-0.014706471934914589,0.0068314578384160995
1728303246261604000,1.66560400390625,-0.00047654472291469574,-0.02348596230149269,0.008442128077149391
1728303246271664000,1.6756640625,-0.005178621970117092,-0.014103380031883717,0.003990121651440859
1728303246281724200,1.68572412109375,-0.001614004373550415,-0.005984930787235498,0.005917318165302277
1728303246291784000,1.695783935546875,0.004074507858604193,-0.010697394609451294,0.0034006312489509583
1728303246301844200,1.70584423828125,-0.0004394538700580597,0.004935266450047493,-0.009997942484915257
1728303246311904300,1.715904296875,0.0004047681577503681,0.012067211791872978,-0.005583485588431358
1728303246321964000,1.725964111328125,0.009160557761788368,-0.012694720178842545,-0.0027202358469367027
1728303246332024000,1.736024169921875,0.0050939107313752174,-0.00405009975656867,-0.01299790758639574
1728303246342084000,1.746083984375,0.001167158130556345,0.009180904366075993,-0.01031238492578268
1728303246352144100,1.75614404296875,0.007414135150611401,-0.0067048510536551476,-0.0129875298589468
1728303246362204200,1.7662041015625,0.003715811762958765,-0.003549662884324789,-0.016590090468525887
1728303246372264200,1.77626416015625,0.004137923009693623,0.012050602585077286,-0.022673016414046288
1728303246382324200,1.78632421875,0.008292281068861485,-0.0007504713721573353,-0.01707802526652813
1728303246392384000,1.796384033203125,0.0012918955180794,0.004207269288599491,-0.02243657223880291
1728303246402444000,1.806444091796875,0.0025618320796638727,0.018557962030172348,-0.019982721656560898
1728303246412504300,1.81650439453125,0.005270266905426979,0.0060251266695559025,-0.02101229876279831
1728303246422564000,1.826564208984375,0.0016549243591725826,0.005757927894592285,-0.015018179081380367
1728303246432624000,1.8366240234375,0.001245063729584217,0.04473435506224632,-0.022716578096151352
1728303246442684200,1.84668408203125,-0.0012243837118148804,0.012028690427541733,-0.01111546065658331
1728303246452744200,1.856744140625,-0.0022680768743157387,0.011457443237304688,-0.014134686440229416
1728303246462804000,1.866803955078125,0.0016112355515360832,0.04155022278428078,-0.014021320268511772
1728303246472864000,1.876864013671875,0.0004596845246851444,0.01097766775637865,-0.005329295061528683
1728303246482924000,1.886924072265625,0.000813568476587534,0.016028577461838722,-0.008188258856534958
1728303246492984000,1.896984130859375,0.0011789542622864246,0.04988108202815056,-0.007787719368934631
1728303246503043800,1.9070439453125,0.002932557137683034,0.021628111600875854,-0.0016325140604749322
1728303246513104000,1.917103759765625,-0.002027047798037529,0.010483047924935818,0.0026866006664931774
1728303246523164200,1.9271640625,-0.003151408862322569,0.046942099928855896,-0.004677382297813892
1728303246533224200,1.93722412109375,0.001165841706097126,0.024435725063085556,0.003583210986107588
1728303246543284000,1.947283935546875,0.0011604521423578262,0.023942144587635994,0.0015426743775606155
1728303246553344000,1.957343994140625,-0.0021272203885018826,0.0354083850979805,0.002518989145755768
1728303246563404000,1.967404052734375,0.001291109947487712,0.013478053733706474,0.003739603329449892
1728303246573463800,1.9774638671875,0.00016113091260194778,0.01183035597205162,0.00398274976760149
1728303246583524000,1.987524169921875,0.0027531487867236137,0.037575945258140564,-0.0023969493340700865
1728303246593584000,1.997584228515625,0.004632807802408934,0.014611242339015007,0.0033126017078757286
1728303246603644000,2.007643798828125,0.001804783008992672,0.001984341535717249,-0.0008147290209308267
1728303246613704000,2.017703857421875,0.0017560471314936876,0.01767328940331936,-0.004708270542323589
1728303246623764000,2.027763916015625,-0.0007832902483642101,0.0018620467744767666,0.0014849462313577533
1728303246633824000,2.037823974609375,0.0021642963401973248,-0.0009686267003417015,-0.0013918004697188735
1728303246643884000,2.047884033203125,0.00013248296454548836,0.007455189246684313,-0.005399748217314482
1728303246653944000,2.057944091796875,0.0013271772768348455,-0.006005757953971624,-0.006079653277993202
1728303246664004000,2.068004150390625,0.001557820476591587,-0.007349001709371805,-0.006869050208479166
1728303246674064000,2.07806396484375,-0.0009207837283611298,0.0008330279961228371,-0.008123398758471012
1728303246684124000,2.0881240234375,0.003162933513522148,-0.010303666815161705,-0.00988994911313057
1728303246694184200,2.09818408203125,-0.0004642917774617672,-0.008691921830177307,-0.009351191110908985
1728303246704244000,2.108243896484375,0.002416295697912574,0.018663760274648666,-0.01844106614589691
1728303246714304000,2.118303955078125,0.004657079465687275,-0.006961707025766373,-0.01401116419583559
1728303246724364000,2.128364013671875,-0.000535349827259779,-0.009571170434355736,-0.016852514818310738
1728303246734424000,2.138424072265625,-0.0026136809028685093,0.010732237249612808,-0.018838699907064438
1728303246744483800,2.14848388671875,0.005046446807682514,-0.00613154424354434,-0.006214796099811792
1728303246754544000,2.158544189453125,0.0017337407916784286,-0.01787208952009678,-0.013700143434107304
1728303246764604200,2.168604248046875,-0.00608333433046937,-0.0047447518445551395,-0.014378063380718231
1728303246774664000,2.178663818359375,0.002179122529923916,-0.012655671685934067,-0.0077489223331213
1728303246784724000,2.188723876953125,0.004336333367973566,-0.011237496510148048,-0.0113065792247653
1728303246794784000,2.198783935546875,-0.003929319325834513,-0.0010117567144334316,-0.0059783924371004105
1728303246804843800,2.20884375,0.0033743884414434433,-0.019832724705338478,-0.003060272429138422
1728303246814904000,2.218904052734375,-0.0014065182767808437,-0.0269944965839386,-0.004734335467219353
1728303246824964000,2.228964111328125,-0.004788442514836788,-0.00584187638014555,-0.005718770436942577
1728303246835024100,2.239024169921875,-0.0006855763494968414,-0.0005973135121166706,-0.002171706408262253
1728303246845084000,2.249083984375,0.0027785631828010082,-0.018397167325019836,-0.0016101669752970338
1728303246855144000,2.25914404296875,-0.004428217187523842,0.007515922654420137,-0.007744492497295141
1728303246865204000,2.269203857421875,0.0016536570619791746,-0.008589222095906734,0.0037864253390580416
1728303246875264000,2.279263916015625,-0.0017040567472577095,-0.01935478299856186,0.004809877835214138
1728303246885324000,2.289323974609375,-0.0005607111379504204,0.00998397171497345,-0.004992091562598944
1728303246895384000,2.299384033203125,0.0011338582262396812,0.008861981332302094,0.0013326494954526424
1728303246905443800,2.30944384765625,-0.001149219460785389,-0.01451919786632061,0.004012116696685553
1728303246915503900,2.31950390625,0.0008638638537377119,-0.007124399300664663,-0.00573531910777092
1728303246925564200,2.329564208984375,0.00076313316822052,0.014434857293963432,-0.004711091052740812
1728303246935624200,2.339624267578125,-0.0011420920491218567,-0.007091207895427942,0.0007920649368315935
1728303246945684000,2.34968408203125,-0.0037183091044425964,-0.006356159690767527,-0.0024684560485184193
1728303246955744000,2.359743896484375,-0.0024434542283415794,0.01975240558385849,-0.0047316099517047405
1728303246965804000,2.369803955078125,-0.00062963692471385,-0.015090979635715485,0.0031585735268890858
1728303246975863800,2.37986376953125,0.0021570948883891106,-0.014143159613013268,-0.0036998651921749115
1728303246985924000,2.389924072265625,0.0014295943547040224,0.008565321564674377,0.0022860500030219555
1728303246995984100,2.399984130859375,0.0013486342504620552,0.0009526750072836876,0.002054887358099222
1728303247006044000,2.4100439453125,-0.0017207972705364227,-0.016197888180613518,0.0012884781463071704
1728303247016104000,2.42010400390625,-0.001321322750300169,0.007436602376401424,-0.0006457756971940398
1728303247026164000,2.4301640625,0.00017473939806222916,0.0011946014128625393,0.006590178236365318
1728303247036224000,2.44022412109375,0.004215553868561983,-0.005344790872186422,0.005270581692457199
1728303247046284000,2.450283935546875,-0.004298223648220301,0.013106237165629864,0.005555897951126099
1728303247056344000,2.460343994140625,-0.0016992446035146713,0.013180539011955261,0.009221206419169903
1728303247066404000,2.470404052734375,0.0012922396417707205,-0.007895845919847488,0.010082212276756763
1728303247076463900,2.4804638671875,-0.0017821136862039566,0.020164817571640015,0.006980162113904953
1728303247086524000,2.49052392578125,0.0023178094998002052,0.02028939686715603,0.017803549766540527
1728303247096584200,2.500584228515625,0.0008370918221771717,-0.009564904496073723,0.015210697427392006
1728303247106644000,2.51064404296875,-0.007257698569446802,-0.000444869976490736,0.00715407682582736
1728303247116704000,2.5207041015625,-0.0005904748104512691,0.010726558044552803,0.01715078391134739
1728303247126764000,2.530763916015625,0.003496280638501048,0.0013356111012399197,0.012965782545506954
1728303247136823800,2.54082373046875,-0.003507566638290882,-0.011957557871937752,0.01146375946700573
1728303247146883800,2.5508837890625,-0.005210057832300663,-0.0022234260104596615,0.012477179989218712
1728303247156944100,2.560944091796875,0.002808453980833292,-0.0065148440189659595,0.009813220240175724
1728303247167004200,2.571004150390625,-0.004491004161536694,-0.024301031604409218,0.017307888716459274
1728303247177064000,2.58106396484375,-0.004050783812999725,0.01467912457883358,0.009252624586224556
1728303247187124000,2.5911240234375,0.0006436393596231937,-0.010995552875101566,0.01131270732730627
1728303247197184000,2.60118408203125,-0.00310875428840518,-0.024982474744319916,0.00895634200423956
1728303247207244000,2.611244140625,-0.0025266194716095924,0.012156032025814056,0.005678493529558182
1728303247217304000,2.621303955078125,0.0023762602359056473,-0.010543420910835266,0.007117932196706533
1728303247227364000,2.631364013671875,-0.00444976519793272,-0.023423420265316963,0.008782952092587948
1728303247237423900,2.641423828125,-0.0003535570576786995,-0.0032883244566619396,0.00017028924776241183
1728303247247484000,2.65148388671875,-0.0022421549074351788,-0.008007125928997993,0.003915634471923113
1728303247257544000,2.6615439453125,0.00038984743878245354,-0.012369916774332523,-0.0023734201677143574
1728303247267604200,2.671604248046875,-0.0003338227979838848,-0.005022463854402304,-0.0019930689595639706
1728303247277664000,2.6816640625,-0.0019077509641647339,-0.016108937561511993,0.004077074117958546
1728303247287724000,2.69172412109375,0.0040002185851335526,-0.029331477358937263,-0.005241363774985075
1728303247297784000,2.7017841796875,-0.004315235652029514,-0.0001616068184375763,-0.011440136469900608
1728303247307843800,2.71184375,0.002775722648948431,-0.009184020571410656,-0.006393789313733578
1728303247317904000,2.72190380859375,0.005502799525856972,-0.026139035820961,-0.009684656746685505
1728303247327964200,2.731964111328125,-0.002497958019375801,0.006915379781275988,-0.02015003003180027
1728303247338024000,2.74202392578125,-0.0015783682465553284,-0.017075173556804657,-0.005463760811835527
1728303247348084000,2.752083984375,0.0013184391427785158,-0.020611824467778206,-0.013458679430186749
1728303247358144000,2.76214404296875,-0.0024486021138727665,-0.003085027914494276,-0.01223788596689701
1728303247368204000,2.7722041015625,0.0008507512975484133,-0.016460474580526352,-0.006414715200662613
1728303247378264000,2.78226416015625,0.00028882408514618874,-0.022272290661931038,-0.006737224292010069
1728303247388324000,2.792323974609375,-0.0033102864399552345,0.005759736523032188,-0.01529963780194521
1728303247398384000,2.802384033203125,-0.000219687819480896,-0.007221043575555086,-0.005971649661660194
1728303247408444000,2.81244384765625,-0.0028630010783672333,-0.03165396302938461,-0.006450476124882698
1728303247418504000,2.82250390625,-0.004234529100358486,0.0006557726301252842,-0.009902466088533401
1728303247428564000,2.83256396484375,0.00143924611620605,0.0024880855344235897,-0.007497580721974373
1728303247438624000,2.8426240234375,-0.0018409695476293564,-0.029895154759287834,-0.0072776032611727715
1728303247448684000,2.85268408203125,-0.00863289088010788,-0.008825739845633507,-0.010214770212769508
1728303247458744000,2.862744140625,-0.0024554231204092503,-0.007515731267631054,-0.002737946342676878
1728303247468804000,2.87280419921875,-0.000848955474793911,-0.02603495866060257,-0.0024109070654958487
1728303247478864000,2.88286376953125,-0.004959011450409889,-0.002207656390964985,-0.00288521614857018
1728303247488924000,2.892923828125,0.0005111848004162312,-0.007965045049786568,0.0003761155530810356
1728303247498984200,2.902984130859375,0.0004962710663676262,-0.02357170172035694,0.00010713632218539715
1728303247509044000,2.9130439453125,-0.0035914015024900436,-0.009180458262562752,-0.0022516618482768536
1728303247519104000,2.92310400390625,0.001813483890146017,-0.005405959207564592,-0.0014503166312351823
1728303247529164000,2.9331640625,0.0012841857969760895,-0.027119439095258713,0.0025654155761003494
1728303247539223800,2.943223876953125,-0.004059979226440191,-0.007959593087434769,0.0003746991278603673
1728303247549284000,2.9532841796875,0.002043797168880701,0.0061529166996479034,0.004576356150209904
1728303247559344000,2.96334423828125,0.0010962444357573986,-0.029631979763507843,0.008027013391256332
1728303247569404000,2.97340380859375,-0.0026617604307830334,-0.0045883795246481895,-0.0002932627685368061
1728303247579464000,2.9834638671875,0.003858989104628563,0.01162068359553814,0.008967612870037556
1728303247589524000,2.99352392578125,0.003430110402405262,-0.026215603575110435,0.009059472940862179
1728303247599584000,3.003583984375,-0.004281072877347469,-0.020150788128376007,0.0038958704099059105
1728303247609644000,3.01364404296875,-0.0040297615341842175,0.005995652638375759,0.003468744456768036
1728303247619704000,3.0237041015625,0.0015847142785787582,-0.01232263445854187,0.0061106001958251
1728303247629764000,3.03376416015625,-0.006080340594053268,-0.01907813921570778,0.00194266508333385
1728303247639824000,3.043823974609375,-0.003990025259554386,0.011222507804632187,-0.0036454456858336926
1728303247649884000,3.0538837890625,-0.00012236787006258965,-0.017305761575698853,0.0015270974254235625
1728303247659944000,3.06394384765625,-0.005374387837946415,-0.016740374267101288,-0.005876756738871336
1728303247670004000,3.07400390625,-0.0025508031249046326,0.007854537107050419,-0.0056529296562075615
1728303247680064000,3.08406396484375,0.002678580116480589,-0.016202861443161964,-0.005023092031478882
1728303247690124000,3.0941240234375,-0.002429843880236149,-0.02229861542582512,-0.013340561650693417
1728303247700184000,3.10418408203125,-0.001323300413787365,0.0013995221816003323,-0.011371953412890434
1728303247710243800,3.114243896484375,0.0011785314418375492,-0.00392945809289813,-0.010239937342703342
1728303247720304000,3.12430419921875,0.0016104963142424822,-0.017148325219750404,-0.01711941510438919
1728303247730364200,3.1343642578125,-0.0009723212569952011,0.0016963542439043522,-0.010831520892679691
1728303247740424000,3.144423828125,0.004532432649284601,-0.02226836606860161,-0.010986250825226307
1728303247750484000,3.15448388671875,0.0016025614459067583,-0.026811916381120682,-0.014227630570530891
1728303247760544000,3.1645439453125,0.001036639790982008,-0.004470390733331442,-0.00925417710095644
1728303247770603800,3.174603759765625,0.009216703474521637,-0.011640770360827446,-0.010164833627641201
1728303247780664000,3.1846640625,0.007387644611299038,-0.024499310180544853,-0.01663152128458023
1728303247790724000,3.19472412109375,0.00059133255854249,-0.01895676553249359,-0.003155999118462205
1728303247800784100,3.2047841796875,0.005402066744863987,-0.03172609210014343,-0.003345349570736289
1728303247810844000,3.214843994140625,0.008688916452229023,-0.036806799471378326,-0.00784329604357481
1728303247820904000,3.224904052734375,0.004024656489491463,-0.010548032820224762,-0.0014927216107025743
1728303247830964000,3.2349638671875,0.002271267818287015,-0.004842489492148161,-0.014555429108440876
1728303247841024000,3.24502392578125,-0.00352723291143775,-0.03819165751338005,0.0041301073506474495
1728303247851084000,3.255083984375,-0.0014776000753045082,-0.017082545906305313,0.002728776540607214
1728303247861144000,3.26514404296875,0.0030913189984858036,-0.02019125409424305,0.0006264770636335015
1728303247871203800,3.275203857421875,-0.001753934659063816,-0.03178071603178978,0.008500499650835991
1728303247881263900,3.285263916015625,-0.000041256193071603775,-0.011611264199018478,0.00401200819760561
1728303247891324200,3.29532421875,-0.0007084021344780922,-0.0217951238155365,0.007688101381063461
1728303247901384200,3.30538427734375,-0.0046027423813939095,-0.029714830219745636,0.0062625110149383545
1728303247911444000,3.31544384765625,-0.00014309026300907135,-0.010737299919128418,0.005421765148639679
1728303247921504000,3.32550390625,0.002321399049833417,-0.017164306715130806,0.009460981003940105
1728303247931564000,3.33556396484375,-0.003208824899047613,-0.028639961034059525,0.009832547977566719
1728303247941623800,3.345623779296875,-0.002115597017109394,-0.004866456147283316,0.009966505691409111
1728303247951684000,3.35568408203125,0.005371467210352421,-0.013710761442780495,0.0102167259901762
1728303247961744100,3.365744140625,-0.004175699315965176,-0.023836633190512657,0.010712074115872383
1728303247971804000,3.375803955078125,-0.003319910727441311,-0.0016789925284683704,0.00867217592895031
1728303247981864000,3.385864013671875,0.007535133510828018,-0.0020574270747601986,0.010251430794596672
1728303247991924000,3.395924072265625,0.002454811707139015,-0.015757501125335693,0.0173320472240448
1728303248001984000,3.40598388671875,-0.0016885343939065933,-0.002628648653626442,0.016231894493103027
1728303248012044000,3.4160439453125,0.006039310712367296,-0.002689422108232975,0.01577209122478962
1728303248022104000,3.42610400390625,0.0027431161142885685,0.0004917238838970661,0.013180836103856564
1728303248032164000,3.4361640625,-0.001300577074289322,0.013401173055171967,0.012947870418429375
1728303248042223900,3.446223876953125,0.0013620511163026094,-0.0012129233218729496,0.014079713262617588
1728303248052284000,3.456283935546875,0.0012023900635540485,-0.004416509997099638,0.009796067140996456
1728303248062344200,3.46634423828125,0.0013829523231834173,0.016887713223695755,0.008669816888868809
1728303248072404000,3.476404052734375,0.003996133338660002,0.0024664578959345818,0.010626331903040409
1728303248082464000,3.486464111328125,0.0017292508855462074,0.0036795276682823896,0.0066582215949893
1728303248092524000,3.49652392578125,-0.0014879223890602589,0.010065281763672829,0.013389167375862598
1728303248102583800,3.506583740234375,-0.0015734098851680756,0.004143210593611002,0.005951491184532642
1728303248112643800,3.516643798828125,-0.0018822257407009602,0.00844577420502901,-0.0019716559909284115
1728303248122704100,3.5267041015625,-0.005677762441337109,0.02099379152059555,0.006466836202889681
1728303248132764200,3.53676416015625,0.0022460827603936195,0.010819167830049992,0.004716619849205017
1728303248142824000,3.546823974609375,-0.0042115505784749985,0.015625374391674995,0.0017983282450586557
1728303248152884000,3.556884033203125,-0.0034754397347569466,0.015766844153404236,0.005726986564695835
1728303248162944000,3.566944091796875,-0.0007789889350533485,0.009245295077562332,0.00488649308681488
1728303248173004000,3.577004150390625,-0.001443502027541399,0.005925975739955902,-0.0010245153680443764
1728303248183064000,3.58706396484375,-0.003200921695679426,0.020006906241178513,0.002142515731975436
1728303248193124000,3.5971240234375,0.003648957936093211,0.008096198551356792,0.0017120535485446453
1728303248203183900,3.607183837890625,0.0009549041278660297,0.0003032567910850048,0.0011405391851440072
1728303248213244000,3.617243896484375,-0.0016743475571274757,0.013264624401926994,0.002753505250439048
1728303248223304000,3.627303955078125,0.0026908395811915398,0.009011556394398212,0.00021897489205002785
1728303248233364200,3.6373642578125,-0.00028166593983769417,0.004628931637853384,0.003201800864189863
1728303248243424000,3.647424072265625,-0.004193848930299282,0.010480961762368679,0.003295277711004019
1728303248253484000,3.657484130859375,-0.0012406702153384686,0.0017729578539729118,0.003281695768237114
1728303248263544000,3.6675439453125,-0.003767743706703186,0.007455344311892986,0.0029677089769393206
1728303248273603800,3.677603759765625,-0.0013096458278596401,0.01419047825038433,0.006201852113008499
1728303248283664000,3.687663818359375,-0.00015649711713194847,0.00014603277668356895,0.006964314728975296
1728303248293724200,3.69772412109375,-0.00375948753207922,0.0010935855098068714,0.004838047083467245
1728303248303784000,3.707783935546875,-0.003695571795105934,0.009336069226264954,0.008059673011302948
1728303248313844000,3.717843994140625,0.002631543204188347,-0.0028163986280560493,0.0041300468146800995
1728303248323904000,3.727904052734375,-0.005501750390976667,-0.009656727313995361,0.0030815606005489826
1728303248333964000,3.737964111328125,-0.005518071353435516,0.005106798373162746,0.00587235763669014
1728303248344024000,3.748024169921875,0.003139066742733121,-0.005897649563848972,0.006654794327914715
1728303248354084000,3.758083984375,-0.0042456635273993015,-0.012230423279106617,0.003169721458107233
1728303248364144000,3.76814404296875,0.00014349212870001793,-0.005587699823081493,0.008056355640292168
1728303248374204000,3.778203857421875,0.00117324641905725,-0.0186307393014431,0.00424009608104825
1728303248384264000,3.788263916015625,-0.0007207938469946384,-0.01718650758266449,0.0038214470259845257
1728303248394324000,3.798323974609375,-0.0022214329801499844,-0.007789854891598225,0.008377966471016407
1728303248404384000,3.808384033203125,0.003007950261235237,-0.017155125737190247,0.004528100602328777
1728303248414444000,3.818444091796875,-0.0007004896178841591,-0.014863867312669754,0.0028238510712981224
1728303248424504000,3.828504150390625,0.0004092492163181305,-0.007839247584342957,0.007936587557196617
1728303248434564000,3.838564208984375,0.0030865008011460304,-0.025107912719249725,0.005988083779811859
1728303248444624000,3.848623779296875,-0.002123441081494093,-0.026066385209560394,0.008085856214165688
1728303248454684000,3.858683837890625,0.0027288757264614105,-0.021056992933154106,0.006120807491242886
1728303248464744200,3.868744140625,0.003334212116897106,-0.029174838215112686,0.005460343789309263
1728303248474804200,3.87880419921875,-0.0016598240472376347,-0.027079086750745773,0.006017756182700396
1728303248484864000,3.888864013671875,0.0033762133680284023,-0.0206209197640419,0.008298487402498722
1728303248494924000,3.898924072265625,0.005165095441043377,-0.02450621873140335,0.006308935582637787
1728303248504984000,3.908984130859375,-0.0018984065391123295,-0.027769390493631363,0.012995600700378418
1728303248515044000,3.919044189453125,-0.0001736655831336975,-0.035713713616132736,0.00840403325855732
1728303248525103000,3.92910302734375,0.0023922903928905725,-0.026509027928113937,0.00720427930355072
1728303248535163100,3.9391630859375,-0.0001409999094903469,-0.014853646978735924,0.008334305137395859
1728303248545223000,3.949222900390625,0.001581266289576888,-0.031400665640830994,0.006694064475595951
1728303248555283000,3.959282958984375,-0.0031056678853929043,-0.02815345861017704,0.006101681850850582
1728303248565343200,3.96934326171875,-0.00025954749435186386,-0.019720027223229408,0.009955542162060738
1728303248575403000,3.979403076171875,0.0027366369031369686,-0.014277130365371704,0.0029727823566645384
1728303248585463000,3.989463134765625,-0.004641118459403515,-0.021670332178473473,0.013262171298265457
1728303248595523000,3.999523193359375,-0.0002655857242643833,-0.0329604372382164,0.012252939864993095
1728303248605582800,4.009582763671875,-0.0017500314861536026,-0.021996736526489258,0.004782240837812424
1728303248615643100,4.01964306640625,-0.0013259649276733398,-0.0212473813444376,0.014344540424644947
1728303248625703200,4.029703125,0.0008133524097502232,-0.02016959898173809,0.009528214111924171
1728303248635763000,4.039762939453125,-0.0029979990795254707,-0.016858840361237526,0.011219200678169727
1728303248645823000,4.049822998046875,-0.0030637788586318493,-0.02187490463256836,0.00822474155575037
1728303248655883000,4.059883056640625,-0.0017053917981684208,-0.010500486940145493,0.00536402128636837
1728303248665943000,4.069943115234375,0.002766055753454566,-0.009334554895758629,0.014336210675537586
1728303248676003000,4.080003173828125,-0.00043946271762251854,-0.010151682421565056,0.013280317187309265
1728303248686063000,4.09006298828125,-0.0015116515569388866,-0.003563022706657648,0.009981459937989712
1728303248696123100,4.100123046875,-0.0021344232372939587,-0.013787179253995419,0.013285920955240726
1728303248706183000,4.110182861328125,-0.0008108322508633137,-0.004880238324403763,0.01171252503991127
1728303248716243000,4.120242919921875,0.0020964364521205425,-0.011284338310360909,0.01393821369856596
1728303248726303000,4.130302978515625,0.00026098592206835747,-0.002782197203487158,0.01171660516411066
1728303248736363000,4.140363037109375,0.0007676335517317057,-0.015656044706702232,0.012597131542861462
1728303248746423000,4.150423095703125,0.00011515896767377853,-0.011176606640219688,0.010774464346468449
1728303248756483000,4.160483154296875,0.002919742139056325,0.0008889855816960335,0.008428117260336876
1728303248766543000,4.170543212890625,0.002035839017480612,-0.0038469135761260986,0.006106107030063868
1728303248776603000,4.180602783203125,-0.001122714951634407,0.007531047333031893,0.010130149312317371
1728303248786663200,4.1906630859375,-0.00006384216248989105,-0.001370302401483059,0.005153766367584467
1728303248796723200,4.20072314453125,-0.002300947904586792,-0.001605768222361803,0.009467760100960732
1728303248806783000,4.210782958984375,-0.0019789719954133034,0.007854579016566277,0.001582672935910523
1728303248816843000,4.220843017578125,0.000661805272102356,0.0017526890151202679,0.011215895414352417
1728303248826903000,4.230903076171875,-0.003111361525952816,0.012086552567780018,0.010279794223606586
1728303248836962800,4.240962890625,-0.0020849285647273064,-0.00082387775182724,0.008484351448714733
1728303248847023000,4.251023193359375,-0.0025043762288987637,0.0011218278668820858,0.008730960078537464
1728303248857083100,4.261083251953125,-0.0013605402782559395,-0.0021617067977786064,0.013218284584581852
1728303248867143200,4.27114306640625,-0.0014199288561940193,0.0009741648100316525,0.01757282018661499
1728303248877203000,4.281202880859375,-0.005540127865970135,-0.009183329530060291,0.01616547629237175
1728303248887263000,4.291262939453125,-0.003320382907986641,-0.0009938422590494156,0.02315627411007881
1728303248897323000,4.301322998046875,-0.0005172635428607464,-0.0017731855623424053,0.017791669815778732
1728303248907383000,4.311383056640625,-0.006396723911166191,-0.0002975277602672577,0.02504691854119301
1728303248917443000,4.321443115234375,-0.0028859199956059456,0.00009041512385010719,0.0146569162607193
1728303248927503000,4.331503173828125,-0.0019128010608255863,0.008173908106982708,0.017644183710217476
1728303248937563000,4.34156298828125,-0.002352259587496519,-0.002417470794171095,0.017389489337801933
1728303248947623000,4.351622802734375,-0.0012462488375604153,-0.015860574319958687,0.021185293793678284
1728303248957683200,4.36168310546875,-0.004573308862745762,-0.010667035356163979,0.020707184448838234
1728303248967743200,4.3717431640625,0.0017791290301829576,-0.006893867161124945,0.01478244923055172
1728303248977803000,4.381802978515625,-0.0001841532066464424,-0.008030237630009651,0.021742088720202446
1728303248987863000,4.391863037109375,-0.003739207051694393,-0.02608513832092285,0.02153169922530651
1728303248997923000,4.401923095703125,-0.0006406060419976711,-0.022618180140852928,0.02124031074345112
1728303249007982800,4.41198291015625,-0.0010470044799149036,-0.009611301124095917,0.018749456852674484
1728303249018043100,4.422043212890625,-0.0008706287480890751,-0.01914864033460617,0.025297299027442932
1728303249028103200,4.432103271484375,-0.0018474762327969074,-0.00945313647389412,0.01655760407447815
1728303249038163000,4.442162841796875,-0.0035674739629030228,-0.011484524235129356,0.014258713461458683
1728303249048223000,4.452222900390625,-0.0026284432969987392,-0.018409276381134987,0.014456319622695446
1728303249058283000,4.462282958984375,-0.0030473177321255207,-0.013106223195791245,0.020481081679463387
1728303249068343000,4.472343017578125,-0.001649690791964531,-0.02060248889029026,0.014996834099292755
1728303249078403000,4.482403076171875,-0.005981312599033117,-0.014808373525738716,0.017037780955433846
1728303249088463000,4.492463134765625,-0.005299543496221304,-0.01320195384323597,0.010774560272693634
1728303249098523100,4.502523193359375,0.00024369731545448303,0.009626466780900955,0.011772661469876766
1728303249108583000,4.5125830078125,-0.0003168978728353977,0.002152837812900543,0.004617013968527317
1728303249118643000,4.522642822265625,0.000005647074431180954,0.003576284274458885,0.012915250845253468
1728303249128703200,4.532703125,-0.023481303825974464,0.014790855348110199,0.01052852626889944
1728303249138763000,4.542762939453125,0.0018095767591148615,0.0076917619444429874,0.02054062858223915
1728303249148823000,4.552822998046875,0.002813854720443487,-0.01000148057937622,0.016340289264917374
1728303249158883000,4.562883056640625,0.001345994183793664,-0.004603545647114515,0.014230724424123764
1728303249168942800,4.57294287109375,-0.0005035712383687496,-0.022742334753274918,0.01649041660130024
1728303249179003000,4.5830029296875,0.0019816034473478794,-0.00727525819092989,0.02308850921690464
1728303249189063200,4.593063232421875,0.0007062156219035387,-0.004808372817933559,0.016572818160057068
1728303249199123200,4.603123291015625,-0.00042858533561229706,-0.011317781172692776,0.021257387474179268
1728303249209183000,4.613182861328125,0.0004262896254658699,-0.013828343711793423,0.01646742783486843
1728303249219243000,4.623242919921875,0.06518297642469406,0.046427905559539795,0.0025740081910043955
1728303249229303000,4.633302978515625,0.23259353637695312,0.29911237955093384,-0.08403491228818893
1728303249239363000,4.643363037109375,-0.0011386200785636902,0.01407893467694521,0.015758931636810303
1728303249249423000,4.653423095703125,-0.00005631148815155029,-0.02499469928443432,0.01701301336288452
1728303249259483100,4.663483154296875,-0.0014231838285923004,-0.013260348699986935,0.018176333978772163
1728303249269543000,4.67354296875,-0.0017036143690347672,-0.017263345420360565,0.01748977042734623
1728303249279603000,4.68360302734375,-0.0024074651300907135,-0.022185735404491425,0.02094322070479393
1728303249289663000,4.6936630859375,-0.0019379500299692154,-0.028680386021733284,0.023091593757271767
1728303249299723300,4.70372314453125,-0.001406217459589243,-0.03555462136864662,0.02041766047477722
1728303249309783000,4.713782958984375,-0.001680256798863411,-0.02867727354168892,0.025423072278499603
1728303249319843000,4.723843017578125,0.00006723031401634216,-0.028091533109545708,0.021134857088327408
1728303249329903000,4.733903076171875,0.0030816623475402594,-0.024414507672190666,0.024179648607969284
1728303249339963000,4.743962890625,0.002663510153070092,-0.026703214272856712,0.018242571502923965
1728303249350023000,4.75402294921875,0.0006451006047427654,-0.02337586134672165,0.0198881383985281
1728303249360083200,4.764083251953125,0.00529270526021719,-0.030832163989543915,0.011372128501534462
1728303249370143000,4.77414306640625,-0.002813424449414015,-0.02532074972987175,0.019801033660769463
1728303249380203000,4.784203125,0.0024333263281732798,-0.041235316544771194,0.012015677988529205
1728303249390263000,4.794262939453125,-0.0009558121673762798,-0.024447010830044746,0.0169699564576149
1728303249400323000,4.804322998046875,0.00448587816208601,-0.028595995157957077,0.013353770598769188
1728303249410383000,4.814383056640625,0.00003786617890000343,-0.02115139551460743,0.01588910073041916
1728303249420443100,4.824443115234375,0.003553308080881834,-0.02811204083263874,0.017201367765665054
1728303249430503200,4.834503173828125,0.007227404974400997,-0.024598529562354088,0.009879273362457752
1728303249440563000,4.84456298828125,0.0023268000222742558,-0.019091662019491196,0.012563490308821201
1728303249450623000,4.854623046875,0.0003989376127719879,-0.026370881125330925,0.010861996561288834
1728303249460683000,4.86468310546875,-0.0038660503923892975,-0.020090783014893532,0.015360367484390736
1728303249470743000,4.874742919921875,-0.0034519294276833534,-0.027564410120248795,0.006312277168035507
1728303249480802800,4.884802734375,-0.006518140900880098,-0.01976148970425129,0.018924390897154808
1728303249490862800,4.89486279296875,-0.004559918772429228,-0.024615101516246796,0.006552409380674362
1728303249500923000,4.9049228515625,-0.00887061282992363,-0.014691980555653572,0.015791859477758408
1728303249510983000,4.91498291015625,-0.00854490790516138,-0.021094219759106636,0.014274124056100845
1728303249521043000,4.92504296875,-0.006823454983532429,-0.007258886471390724,0.02426660619676113
1728303249531103000,4.93510302734375,-0.0056948065757751465,-0.0077489083632826805,0.013584134168922901
1728303249541163000,4.9451630859375,-0.006649533752351999,0.0008682506158947945,0.021077226847410202
1728303249551222800,4.955222900390625,-0.008976338431239128,-0.012564200907945633,0.01859170012176037
1728303249561282800,4.96528271484375,-0.011471808888018131,-0.005747249815613031,0.02407786250114441
1728303249571342800,4.9753427734375,-0.007186250761151314,-0.01210341788828373,0.022502601146697998
1728303249581403000,4.98540283203125,-0.009278356097638607,-0.00904080830514431,0.031515464186668396
1728303249591463000,4.995462890625,-0.01113697700202465,-0.012871498242020607,0.027193952351808548
1728303249601523000,5.00552294921875,-0.012674657627940178,-0.006675276439636946,0.0369035005569458
1728303249611583000,5.0155830078125,-0.011771047487854958,-0.006264617200940847,0.03635755181312561
1728303249621642800,5.025642822265625,-0.01319417729973793,0.0011771507561206818,0.03732803463935852
1728303249631702800,5.035702880859375,-0.013528937473893166,-0.009532218798995018,0.030916471034288406
1728303249641763000,5.04576318359375,-0.011755702085793018,-0.003837231080979109,0.039577193558216095
1728303249651822800,5.05582275390625,-0.015906505286693573,-0.0065419371239840984,0.03759926185011864
1728303249661883000,5.0658828125,-0.017949935048818588,0.0029855770990252495,0.04277454689145088
1728303249671943000,5.07594287109375,-0.02115025743842125,-0.007795431185513735,0.039483945816755295
1728303249682002700,5.086002685546875,-0.023444531485438347,-0.01079123467206955,0.04939925670623779
1728303249692063000,5.09606298828125,-0.025470931082963943,-0.0030757905915379524,0.043212201446294785
1728303249702123000,5.106123046875,-0.019543040543794632,0.008871249854564667,0.04483683779835701
1728303249712182800,5.116182861328125,-0.024247515946626663,0.003946532495319843,0.03550698608160019
1728303249722242800,5.126242919921875,-0.023615878075361252,0.006486824247986078,0.04176298901438713
1728303249732302800,5.136302734375,-0.023771407082676888,0.0016212286427617073,0.03652402013540268
1728303249742363000,5.14636279296875,-0.02288413979113102,0.007503447588533163,0.03819722682237625
1728303249752423000,5.1564228515625,-0.02613452821969986,-0.006488267797976732,0.03441127762198448
1728303249762483000,5.16648291015625,-0.02447563409805298,0.009695105254650116,0.04016707092523575
1728303249772543000,5.17654296875,-0.026810960844159126,-0.013574795797467232,0.03639763221144676
1728303249782602800,5.186602783203125,-0.029752345755696297,-0.016100918874144554,0.040718067437410355
1728303249792662800,5.196662841796875,-0.03180910646915436,-0.022616608068346977,0.03887435793876648
1728303249802722800,5.206722900390625,-0.027943216264247894,-0.016896769404411316,0.04518034681677818
1728303249812782800,5.216782958984375,-0.03235767409205437,-0.029038652777671814,0.03721989318728447
1728303249822843000,5.2268427734375,-0.02838939242064953,-0.023037075996398926,0.03862762451171875
1728303249832903000,5.23690283203125,-0.03009701333940029,-0.032793302088975906,0.03405125066637993
1728303249842963000,5.246962890625,-0.03127313777804375,-0.035608235746622086,0.03810359165072441
1728303249853022700,5.257022705078125,-0.031630534678697586,-0.038491908460855484,0.029874423518776894
1728303249863083000,5.2670830078125,-0.03623208403587341,-0.03731326386332512,0.034105971455574036
1728303249873143000,5.27714306640625,-0.04505167156457901,-0.04355757683515549,0.027427826076745987
1728303249883202800,5.287202880859375,-0.0366387739777565,-0.04955725744366646,0.035417113453149796
1728303249893262800,5.297262939453125,-0.04175177589058876,-0.05270591005682945,0.031983502209186554
1728303249903323000,5.307322998046875,-0.04790957272052765,-0.04050435870885849,0.03514164686203003
1728303249913382700,5.317382568359375,-0.04658225551247597,-0.04816148057579994,0.02569994330406189
1728303249923443000,5.32744287109375,-0.044094547629356384,-0.04262658953666687,0.026729850098490715
1728303249933503000,5.3375029296875,-0.05063021183013916,-0.0497172586619854,0.020410168915987015
1728303249943563000,5.34756298828125,-0.050789542496204376,-0.04735953360795975,0.01742483861744404
1728303249953622800,5.357622802734375,-0.05610707402229309,-0.05508536472916603,0.014043955132365227
1728303249963682800,5.367682861328125,-0.05497724935412407,-0.06552952527999878,0.01838013529777527
1728303249973742800,5.377742919921875,-0.05858609825372696,-0.06036405637860298,0.01598648726940155
1728303249983803000,5.387802978515625,-0.05743035301566124,-0.0638025626540184,0.015157951973378658
1728303249993863000,5.39786279296875,-0.06165465712547302,-0.047808416187763214,0.018545491620898247
1728303250003923000,5.4079228515625,-0.05557858943939209,-0.04351290315389633,0.01994927041232586
1728303250013982700,5.417982666015625,-0.05714879184961319,-0.04458056390285492,0.01466316170990467
1728303250024042800,5.428042724609375,-0.054592862725257874,-0.0342603400349617,0.01469107810407877
1728303250034103000,5.43810302734375,-0.057002756744623184,-0.01759587787091732,0.006246194709092379
1728303250044163000,5.4481630859375,-0.058286190032958984,-0.0299825482070446,0.008270669728517532
1728303250054222800,5.458222900390625,-0.062494777143001556,-0.027793429791927338,0.006980367936193943
1728303250064283000,5.468282958984375,-0.06130441650748253,-0.029133010655641556,0.006922219879925251
1728303250074343000,5.478343017578125,-0.06238246336579323,-0.019690241664648056,0.008363788947463036
1728303250084402700,5.488402587890625,-0.0594952255487442,-0.020057760179042816,0.01472467090934515
1728303250094463000,5.498462890625,-0.061254508793354034,-0.008101231418550014,0.015394988469779491
1728303250104523000,5.50852294921875,-0.06211152672767639,-0.013676880858838558,0.013796061277389526
1728303250114582800,5.518582763671875,-0.06152430176734924,-0.00016906112432479858,0.006692612078040838
1728303250124642800,5.528642822265625,-0.05995336174964905,0.006355728022754192,0.005879419390112162
1728303250134702800,5.538702880859375,-0.06630313396453857,0.011541435495018959,0.00204739673063159
1728303250144763000,5.548762939453125,-0.06575997173786163,0.009293178096413612,-0.0011758083710446954
1728303250154823000,5.558822998046875,-0.06810035556554794,0.01391003467142582,-0.002870643977075815
1728303250164883000,5.568883056640625,-0.07343298196792603,-0.007116212975233793,-0.005646768491715193
1728303250174943000,5.57894287109375,-0.07780136168003082,-0.005478634964674711,0.0033834781497716904
1728303250185002800,5.589002685546875,-0.07904794812202454,-0.013692367821931839,0.004093572963029146
1728303250195062800,5.599062744140625,-0.08467041701078415,-0.013721130788326263,0.010576238855719566
1728303250205123000,5.609123046875,-0.0817418172955513,-0.017969291657209396,0.005121562164276838
1728303250215182800,5.619182861328125,-0.08533495664596558,-0.0019530421122908592,0.012588533572852612
1728303250225243000,5.629242919921875,-0.08466991037130356,-0.0089553352445364,0.007760346867144108
1728303250235303000,5.639302978515625,-0.0893581360578537,-0.014119470492005348,0.009214699268341064
1728303250245363000,5.649363037109375,-0.09671734273433685,-0.024187760427594185,0.0012116809375584126
1728303250255422700,5.659422607421875,-0.0960954949259758,-0.010267682373523712,0.004008532501757145
1728303250265483000,5.66948291015625,-0.09250584989786148,-0.022762689739465714,0.004669433459639549
1728303250275543000,5.67954296875,-0.09615597873926163,-0.042324408888816833,0.00894460640847683
1728303250285602800,5.689602783203125,-0.10187457501888275,-0.03794904425740242,0.008948298171162605
1728303250295662800,5.699662841796875,-0.09420280158519745,-0.02229871042072773,0.010383210144937038
1728303250305723000,5.709722900390625,-0.09310290962457657,-0.04141083359718323,0.014019187539815903
1728303250315783000,5.719782958984375,-0.09266667813062668,-0.024915210902690887,0.011423670686781406
1728303250325843000,5.729843017578125,-0.0936456248164177,-0.04367107152938843,0.011499667540192604
1728303250335903000,5.739903076171875,-0.09331166744232178,-0.033359844237565994,0.008455141447484493
1728303250345962800,5.749962646484375,-0.09698545932769775,-0.046083640307188034,0.009821971878409386
1728303250356022800,5.760022705078125,-0.09654337167739868,-0.029429562389850616,0.007285310886800289
1728303250366082800,5.770082763671875,-0.09407089650630951,-0.032294731587171555,0.004249404184520245
1728303250376143000,5.78014306640625,-0.10286332666873932,-0.03604020178318024,0.006666489411145449
1728303250386203000,5.790202880859375,-0.10312943905591965,-0.03522230312228203,0.0018713459139689803
1728303250396263000,5.800262939453125,-0.10673295706510544,-0.030202241614460945,0.0037320966366678476
1728303250406323000,5.810322998046875,-0.10466815531253815,-0.03670324385166168,-0.0029529102612286806
1728303250416382700,5.8203828125,-0.11621002852916718,-0.029598459601402283,0.00037763890577480197
1728303250426442800,5.83044287109375,-0.10754070430994034,-0.030864980071783066,-0.0062826224602758884
1728303250436503000,5.8405029296875,-0.11602339893579483,-0.026816178113222122,-0.0036452943459153175
1728303250446562800,5.850562744140625,-0.11870789527893066,-0.034935999661684036,-0.0058055780827999115
1728303250456622800,5.860622802734375,-0.12095586210489273,-0.02996467612683773,-0.0021013871300965548
1728303250466683000,5.870682861328125,-0.123685322701931,-0.04167027771472931,0.0036755059845745564
1728303250476742100,5.8807421875,-0.12654823064804077,-0.042254574596881866,0.005657163914293051
1728303250486802400,5.890802490234375,-0.12796370685100555,-0.04184498265385628,0.00855947658419609
1728303250496862200,5.9008623046875,-0.13046973943710327,-0.03807341307401657,0.011555799283087254
1728303250506922200,5.910922119140625,-0.13529212772846222,-0.04308011382818222,0.016979653388261795
1728303250516982300,5.920982177734375,-0.13819018006324768,-0.031794704496860504,0.016986045986413956
1728303250527042000,5.9310419921875,-0.13871771097183228,-0.03640805557370186,0.014051568694412708
1728303250537102300,5.941102294921875,-0.1333988457918167,-0.04140894114971161,0.00685783801600337
1728303250547162400,5.951162353515625,-0.13908466696739197,-0.049227602779865265,0.004986627958714962
1728303250557222400,5.961222412109375,-0.13866788148880005,-0.05201273784041405,-0.003021230921149254
1728303250567282200,5.9712822265625,-0.1375703364610672,-0.06320028007030487,-0.002531477715820074
1728303250577342200,5.98134228515625,-0.14658887684345245,-0.07588944584131241,-0.008989110589027405
1728303250587402200,5.99140234375,-0.1510671079158783,-0.08154713362455368,-0.014372107572853565
1728303250597462300,6.001462158203125,-0.1535731554031372,-0.08462841063737869,-0.012610692530870438
1728303250607522300,6.011522216796875,-0.1596539318561554,-0.08940698951482773,-0.01359832938760519
1728303250617582300,6.021582275390625,-0.15915484726428986,-0.08107289671897888,-0.024723686277866364
1728303250627642000,6.03164208984375,-0.16321134567260742,-0.07364895939826965,-0.020320748910307884
1728303250637702100,6.0417021484375,-0.16546358168125153,-0.06164848431944847,-0.026991436257958412
1728303250647762200,6.05176220703125,-0.16531655192375183,-0.06351631134748459,-0.02419998310506344
1728303250657822500,6.061822509765625,-0.17337395250797272,-0.054299116134643555,-0.02902057021856308
1728303250667882200,6.07188232421875,-0.17578373849391937,-0.05929343402385712,-0.018245099112391472
1728303250677942300,6.0819423828125,-0.1803758293390274,-0.04359836503863335,-0.030067138373851776
1728303250688002300,6.092002197265625,-0.18309730291366577,-0.055353641510009766,-0.019975556060671806
1728303250698062000,6.10206201171875,-0.18719644844532013,-0.043790996074676514,-0.02499454841017723
1728303250708122400,6.112122314453125,-0.1875085085630417,-0.036107856780290604,-0.022957270964980125
1728303250718182400,6.122182373046875,-0.18862809240818024,-0.028534095734357834,-0.026560526341199875
1728303250728242200,6.1322421875,-0.18807406723499298,-0.01415294036269188,-0.02057122252881527
1728303250738302200,6.14230224609375,-0.19136281311511993,-0.01470235176384449,-0.021333953365683556
1728303250748362200,6.1523623046875,-0.19061078131198883,0.001774052157998085,-0.022080764174461365
1728303250758422000,6.162422119140625,-0.18823496997356415,-0.0034217750653624535,-0.019122524186968803
1728303250768482300,6.172482421875,-0.2024267464876175,0.013713406398892403,-0.020139049738645554
1728303250778542300,6.182542236328125,-0.19674621522426605,0.010553033091127872,-0.0249889325350523
1728303250788602400,6.192602294921875,-0.2046305239200592,0.018842333927750587,-0.026613159105181694
1728303250798662100,6.202662109375,-0.21172279119491577,0.014559172093868256,-0.0276200994849205
1728303250808722200,6.21272216796875,-0.211621955037117,0.015612132847309113,-0.025805307552218437
1728303250818782200,6.2227822265625,-0.2161669135093689,0.0169780682772398,-0.01865977980196476
1728303250828842200,6.23284228515625,-0.21914555132389069,0.034767769277095795,-0.02652500756084919
1728303250838902300,6.24290234375,-0.22294960916042328,0.02349168062210083,-0.02080613560974598
1728303250848962300,6.25296240234375,-0.22628436982631683,0.029205743223428726,-0.023131512105464935
1728303250859022000,6.26302197265625,-0.22996538877487183,0.018984265625476837,-0.01494628470391035
1728303250869082000,6.27308203125,-0.23200461268424988,0.0194860752671957,-0.018203996121883392
1728303250879142400,6.283142333984375,-0.23028606176376343,0.014344575814902782,-0.02150711417198181
1728303250889202400,6.293202392578125,-0.23651905357837677,0.01664908044040203,-0.013544311746954918
1728303250899262200,6.30326220703125,-0.23653662204742432,0.023215901106595993,-0.013231922872364521
1728303250909322200,6.313322265625,-0.23099911212921143,0.029324661940336227,-0.012611939571797848
1728303250919382300,6.32338232421875,-0.23454616963863373,0.00012869341298937798,-0.00681690126657486
1728303250929442000,6.333442138671875,-0.23309741914272308,0.023463308811187744,-0.007834228686988354
1728303250939502300,6.34350244140625,-0.2338516265153885,0.004552470054477453,-0.005845113191753626
1728303250949562400,6.353562255859375,-0.23065537214279175,0.004661295562982559,0.001311041763983667
1728303250959622100,6.3636220703125,-0.233551025390625,-0.009066235274076462,0.0013861429179087281
1728303250969682200,6.37368212890625,-0.23060598969459534,-0.013484420254826546,0.005989597644656897
1728303250979742200,6.3837421875,-0.23197858035564423,-0.03136062249541283,0.006462841294705868
1728303250989802200,6.39380224609375,-0.23347315192222595,-0.02668650820851326,0.013980679214000702
1728303250999862300,6.4038623046875,-0.23945914208889008,-0.04396802932024002,0.012272261083126068
1728303251009922300,6.41392236328125,-0.24284105002880096,-0.04368880018591881,0.01993097923696041
1728303251019982300,6.423982421875,-0.2455286979675293,-0.0561036579310894,0.022707058116793633
1728303251030042000,6.4340419921875,-0.24214036762714386,-0.05748317763209343,0.03183237835764885
1728303251040102100,6.44410205078125,-0.25419116020202637,-0.05230306088924408,0.02950024977326393
1728303251050162400,6.454162353515625,-0.2587926983833313,-0.0599982813000679,0.03116021119058132
1728303251060222200,6.46422216796875,-0.2658538222312927,-0.05463387444615364,0.031001487746834755
1728303251070282200,6.4742822265625,-0.26985540986061096,-0.05082758516073227,0.029542632400989532
1728303251080342300,6.48434228515625,-0.27604034543037415,-0.05948365852236748,0.03326519578695297
1728303251090402300,6.49440234375,-0.2848126292228699,-0.052750684320926666,0.02257191389799118
1728303251100462000,6.504462158203125,-0.2903597354888916,-0.05001908168196678,0.030537961050868034
1728303251110522400,6.5145224609375,-0.29515257477760315,-0.04329046234488487,0.01661033369600773
1728303251120582400,6.52458251953125,-0.2916603684425354,-0.027951719239354134,0.022851184010505676
1728303251130642200,6.53464208984375,-0.30844348669052124,-0.032782621681690216,0.019888369366526604
1728303251140702200,6.5447021484375,-0.3107990622520447,-0.023311888799071312,0.016901368275284767
1728303251150762200,6.55476220703125,-0.3091820478439331,-0.029482141137123108,0.01685510203242302
1728303251160822300,6.564822265625,-0.31388866901397705,-0.02516888454556465,0.017384540289640427
1728303251170882300,6.57488232421875,-0.31607377529144287,-0.03219762444496155,0.01053478941321373
1728303251180942300,6.5849423828125,-0.3179885745048523,-0.04460076615214348,0.009378978051245213
1728303251191002400,6.59500244140625,-0.323334664106369,-0.04377957433462143,0.0134874377399683
1728303251201062100,6.605062255859375,-0.3211918771266937,-0.03657146170735359,0.007174680940806866
1728303251211122200,6.6151220703125,-0.3218199610710144,-0.05253772810101509,0.005796373821794987
1728303251221182500,6.625182373046875,-0.3319770097732544,-0.05528344586491585,0.00212280941195786
1728303251231242200,6.6352421875,-0.3225419521331787,-0.0495869442820549,0.00849948264658451
1728303251241302300,6.64530224609375,-0.33721622824668884,-0.03398588299751282,0.0053287227638065815
1728303251251362300,6.6553623046875,-0.3314036428928375,-0.011744869872927666,0.012425055727362633
1728303251261422000,6.665422119140625,-0.34398043155670166,-0.006441983859986067,0.008289698511362076
1728303251271482000,6.675482177734375,-0.3460199236869812,0.0013525821268558502,0.010706322267651558
1728303251281542400,6.68554248046875,-0.35196012258529663,0.023229118436574936,0.020143765956163406
1728303251291602200,6.695602294921875,-0.3483770191669464,0.029134228825569153,0.030417032539844513
1728303251301662200,6.705662109375,-0.354235976934433,0.021517056971788406,0.036014996469020844
1728303251311722200,6.71572216796875,-0.3682451546192169,0.01769612357020378,0.029848506674170494
1728303251321782300,6.7257822265625,-0.3642301857471466,0.011625181883573532,0.044540900737047195
1728303251331842300,6.73584228515625,-0.36691951751708984,0.0008789454586803913,0.03452358767390251
1728303251341902300,6.74590234375,-0.37002500891685486,-0.019827930256724358,0.037305526435375214
1728303251351962400,6.75596240234375,-0.3800443708896637,-0.024670956656336784,0.04184501990675926
1728303251362022100,6.766022216796875,-0.385028213262558,-0.011307215318083763,0.03760846331715584
1728303251372082200,6.776082275390625,-0.3859652876853943,-0.016936983913183212,0.03150901198387146
1728303251382142200,6.78614208984375,-0.39702433347702026,-0.017680007964372635,0.02072933502495289
1728303251392202200,6.7962021484375,-0.3963969051837921,-0.024509526789188385,0.022692425176501274
1728303251402262300,6.80626220703125,-0.3957550823688507,-0.015493927523493767,0.01580335944890976
1728303251412322300,6.816322265625,-0.39952099323272705,-0.012855296023190022,0.020344506949186325
1728303251422382300,6.82638232421875,-0.40686333179473877,-0.0052953800186514854,0.010782694444060326
1728303251432442000,6.836442138671875,-0.40605852007865906,-0.014054393395781517,0.005477509461343288
1728303251442502100,6.846502197265625,-0.40909719467163086,-0.020055826753377914,0.014291507191956043
1728303251452562400,6.8565625,-0.4102173447608948,-0.03881636634469032,0.006288283970206976
1728303251462622200,6.866622314453125,-0.41054651141166687,-0.053152695298194885,0.009614571928977966
1728303251472682200,6.87668212890625,-0.4069806933403015,-0.06631117314100266,0.005369009915739298
1728303251482743000,6.886742919921875,-0.41020631790161133,-0.06535643339157104,0.0062664952129125595
1728303251492803000,6.896802978515625,-0.4187023937702179,-0.07270227372646332,0.017704445868730545
1728303251502863000,6.906863037109375,-0.41034913063049316,-0.07859984785318375,0.009749849326908588
1728303251512923100,6.916923095703125,-0.4202731251716614,-0.08640184253454208,0.022223830223083496
1728303251522983200,6.926983154296875,-0.426879346370697,-0.09666406363248825,0.016506021842360497
1728303251533043200,6.937043212890625,-0.43705451488494873,-0.08470107614994049,0.019413262605667114
1728303251543103200,6.947103271484375,-0.4379298985004425,-0.080955870449543,0.012442703358829021
1728303251553163000,6.9571630859375,-0.44117701053619385,-0.08006001263856888,0.018096787855029106
1728303251563223000,6.96722314453125,-0.45238837599754333,-0.08879385143518448,0.015341216698288918
1728303251573283000,6.977282958984375,-0.4522188603878021,-0.095004141330719,0.0087627237662673
1728303251583343000,6.987343017578125,-0.4654286801815033,-0.09444727748632431,0.013958817347884178
1728303251593403100,6.997403076171875,-0.46259886026382446,-0.09900099784135818,0.006517048459500074
1728303251603463200,7.007463134765625,-0.4752400815486908,-0.09635275602340698,0.013317696750164032
1728303251613523200,7.017523193359375,-0.48334604501724243,-0.10723090916872025,0.011214382015168667
1728303251623583000,7.0275830078125,-0.4837489724159241,-0.08642390370368958,0.000993169960565865
1728303251633643300,7.037643310546875,-0.4925951361656189,-0.08409953862428665,0.005259671248495579
1728303251643703300,7.047703369140625,-0.4951927959918976,-0.08034341782331467,0.002840455388650298
1728303251653763000,7.05776318359375,-0.5022351145744324,-0.07843976467847824,0.0081578828394413
1728303251663823000,7.067822998046875,-0.5115005373954773,-0.07332383096218109,-0.004558178596198559
1728303251673883100,7.077883056640625,-0.5152994394302368,-0.0642496794462204,-0.005865499377250671
1728303251683943000,7.08794287109375,-0.5160733461380005,-0.06751791387796402,-0.002551194978877902
1728303251694003200,7.098003173828125,-0.5142726302146912,-0.07534938305616379,-0.009612797759473324
1728303251704063200,7.108063232421875,-0.5191709995269775,-0.08225815743207932,-0.009690828621387482
1728303251714123000,7.118123046875,-0.5190117359161377,-0.08498208224773407,-0.01728009805083275
1728303251724183000,7.12818310546875,-0.5226770043373108,-0.08973503112792969,-0.022326523438096046
1728303251734243000,7.1382431640625,-0.5210081934928894,-0.07813268154859543,-0.031546395272016525
1728303251744303000,7.14830322265625,-0.522922158241272,-0.09066072106361389,-0.029787646606564522
1728303251754363100,7.158363037109375,-0.5306878089904785,-0.07056289911270142,-0.028168274089694023
1728303251764423200,7.168423095703125,-0.5232529640197754,-0.0744207575917244,-0.04295201599597931
1728303251774483200,7.178483154296875,-0.5356367230415344,-0.06619498878717422,-0.038562364876270294
1728303251784543000,7.18854296875,-0.5392420887947083,-0.07645189017057419,-0.04101593419909477
1728303251794603000,7.19860302734375,-0.532776415348053,-0.06143924593925476,-0.04755062982439995
1728303251804663300,7.208663330078125,-0.5433531999588013,-0.05873800069093704,-0.04824278503656387
1728303251814723000,7.21872314453125,-0.5491151809692383,-0.056063584983348846,-0.049310311675071716
1728303251824783000,7.228783203125,-0.5476528406143188,-0.027893465012311935,-0.05060753598809242
1728303251834843100,7.238843017578125,-0.5570809841156006,-0.04878377914428711,-0.04805866256356239
1728303251844903200,7.248903076171875,-0.557863175868988,-0.037444572895765305,-0.049330055713653564
1728303251854963000,7.258962890625,-0.5548766851425171,-0.023682476952672005,-0.0540749728679657
1728303251865023200,7.269023193359375,-0.5606437921524048,-0.03277983516454697,-0.043098222464323044
1728303251875083300,7.279083251953125,-0.5678465366363525,-0.0345962792634964,-0.037805963307619095
1728303251885143000,7.28914306640625,-0.5664763450622559,-0.01264197938144207,-0.04380260407924652
1728303251895203000,7.299203125,-0.5704826712608337,-0.02376091293990612,-0.027784064412117004
1728303251905263000,7.30926318359375,-0.5751370787620544,-0.013573789969086647,-0.0353008396923542
1728303251915323100,7.3193232421875,-0.5706021785736084,0.01563297025859356,-0.03845366835594177
1728303251925383200,7.329383056640625,-0.5738003253936768,0.009990265592932701,-0.03809041529893875
1728303251935443200,7.339443115234375,-0.571583092212677,0.03305256739258766,-0.04537477716803551
1728303251945503200,7.349503173828125,-0.5687953233718872,0.03925134241580963,-0.04117630422115326
1728303251955563000,7.35956298828125,-0.569139301776886,0.043366823345422745,-0.04931410029530525
1728303251965623000,7.369623046875,-0.5734200477600098,0.05540910363197327,-0.05220789089798927
1728303251975683300,7.379683349609375,-0.5736739635467529,0.06861553341150284,-0.05141264200210571
1728303251985743000,7.3897431640625,-0.5701130628585815,0.07824898511171341,-0.05417753383517265
1728303251995803100,7.39980322265625,-0.5818571448326111,0.0655156746506691,-0.04866793379187584
1728303252005863200,7.40986328125,-0.5756876468658447,0.0699319913983345,-0.05818687006831169
1728303252015923000,7.4199228515625,-0.5683903694152832,0.0625399723649025,-0.052814994007349014
1728303252025983000,7.42998291015625,-0.5829429626464844,0.06317300349473953,-0.057402823120355606
1728303252036043300,7.440043212890625,-0.579921305179596,0.05592083930969238,-0.050620563328266144
1728303252046103300,7.450103271484375,-0.5843256115913391,0.05453546345233917,-0.053872283548116684
1728303252056163000,7.4601630859375,-0.5799081325531006,0.04318275302648544,-0.05872470885515213
1728303252066223000,7.47022314453125,-0.5892755389213562,0.04845128580927849,-0.04715966433286667
1728303252076283100,7.480283203125,-0.5887875556945801,0.0380028672516346,-0.056956611573696136
1728303252086343200,7.49034326171875,-0.5920954346656799,0.04367513582110405,-0.05277970805764198
1728303252096403200,7.5004033203125,-0.5932616591453552,0.034009382128715515,-0.05521201342344284
1728303252106463200,7.510463134765625,-0.5930709838867188,0.04124252870678902,-0.05773216113448143
1728303252116523000,7.52052294921875,-0.5968703627586365,0.02800419181585312,-0.05661752074956894
1728303252126583000,7.5305830078125,-0.5938519239425659,0.03650367259979248,-0.06047244742512703
1728303252136643000,7.54064306640625,-0.5934367179870605,0.010877224616706371,-0.04805365204811096
1728303252146703400,7.550703369140625,-0.5954282283782959,0.013752106577157974,-0.058653831481933594
1728303252156763100,7.56076318359375,-0.5919715166091919,0.020454442128539085,-0.05665971338748932
1728303252166823200,7.5708232421875,-0.5896098613739014,0.0031667985022068024,-0.05493851378560066
1728303252176883200,7.58088330078125,-0.5889595746994019,-0.0026083956472575665,-0.05734948068857193
1728303252186943000,7.59094287109375,-0.5870234370231628,-0.0102817602455616,-0.06280523538589478
1728303252197003000,7.6010029296875,-0.5818846225738525,-0.02036556415259838,-0.06289266794919968
1728303252207063300,7.611063232421875,-0.5826351046562195,-0.006707010790705681,-0.059729091823101044
1728303252217123000,7.621123046875,-0.5829784274101257,-0.02012794278562069,-0.061703428626060486
1728303252227184000,7.63118408203125,-0.5845448970794678,-0.02018679864704609,-0.05984907224774361
1728303252237243100,7.6412431640625,-0.5826253294944763,-0.02401014417409897,-0.05305234342813492
1728303252247303200,7.65130322265625,-0.577796220779419,-0.023808808997273445,-0.06148897111415863
1728303252257363200,7.66136328125,-0.5824742317199707,-0.026061533018946648,-0.05909606069326401
1728303252267423200,7.67142333984375,-0.5812398791313171,-0.04784752428531647,-0.05820416659116745
1728303252277483300,7.681483154296875,-0.5762372016906738,-0.037124134600162506,-0.057445988059043884
1728303252287543000,7.69154296875,-0.5784015655517578,-0.05458807945251465,-0.05447310209274292
1728303252297603000,7.70160302734375,-0.5815799832344055,-0.04895741865038872,-0.059801071882247925
1728303252307664100,7.7116640625,-0.5726982951164246,-0.0492093525826931,-0.053788188844919205
1728303252317724200,7.72172412109375,-0.5784679651260376,-0.04113747924566269,-0.06008973345160484
1728303252327784000,7.731783935546875,-0.5806469917297363,-0.05006492882966995,-0.05466141551733017
1728303252337844200,7.74184423828125,-0.5843565464019775,-0.02115003578364849,-0.05766778066754341
1728303252347904300,7.751904296875,-0.5824936628341675,-0.05062723532319069,-0.05074116587638855
1728303252357964000,7.761964111328125,-0.5878769159317017,-0.034483037889003754,-0.05185284465551376
1728303252368024000,7.772024169921875,-0.5856936573982239,-0.045024897903203964,-0.052214235067367554
1728303252378084000,7.782083984375,-0.5857234001159668,-0.040129680186510086,-0.04041843116283417
1728303252388144000,7.79214404296875,-0.5813475847244263,-0.04786083474755287,-0.042940977960824966
1728303252398204200,7.8022041015625,-0.5848774313926697,-0.05010291188955307,-0.03446628525853157
1728303252408264200,7.81226416015625,-0.5793516039848328,-0.04831060394644737,-0.031725093722343445
1728303252418324200,7.82232421875,-0.5801697373390198,-0.04888850823044777,-0.025769734755158424
1728303252428384000,7.832384033203125,-0.5812352895736694,-0.05873475223779678,-0.014564217068254948
1728303252438444000,7.842444091796875,-0.5810553431510925,-0.04513011872768402,-0.01901809498667717
1728303252448504300,7.85250439453125,-0.5799551606178284,-0.055931370705366135,-0.011799861676990986
1728303252458564000,7.862564208984375,-0.5866407752037048,-0.05612356215715408,-0.007035521790385246
1728303252468624100,7.8726240234375,-0.5825573205947876,-0.05394962430000305,-0.008868576027452946
1728303252478684000,7.882683837890625,-0.5782885551452637,-0.04162147641181946,-0.002987857675179839
1728303252488744000,7.892743896484375,-0.5843179821968079,-0.06009076163172722,-0.011385071091353893
1728303252498804000,7.902803955078125,-0.5842483639717102,-0.060665808618068695,-0.0034886635839939117
1728303252508864000,7.912864013671875,-0.5786799788475037,-0.04787304624915123,-0.012425432913005352
1728303252518923000,7.922923095703125,-0.5766430497169495,-0.05590357258915901,-0.007724578958004713
1728303252528983000,7.932983154296875,-0.5824242234230042,-0.05629958584904671,-0.004117327276617289
1728303252539043000,7.94304296875,-0.5789761543273926,-0.06292895972728729,-0.014211082831025124
1728303252549103000,7.95310302734375,-0.5740618109703064,-0.046162765473127365,-0.010985461995005608
1728303252559163100,7.9631630859375,-0.5734397768974304,-0.06728000938892365,-0.01875116676092148
1728303252569223000,7.973222900390625,-0.5831376910209656,-0.0580497607588768,-0.01594100147485733
1728303252579283000,7.983282958984375,-0.5722043514251709,-0.04329318180680275,-0.018207352608442307
1728303252589343000,7.993343017578125,-0.5715063214302063,-0.036221157759428024,-0.023230604827404022
1728303252599403000,8.003403076171875,-0.5757486820220947,-0.055287398397922516,-0.015108229592442513
1728303252609463000,8.013463134765624,-0.5724484920501709,-0.04084933549165726,-0.021380506455898285
1728303252619523000,8.023523193359376,-0.5680059194564819,-0.02631356567144394,-0.026071822270751
1728303252629583000,8.0335830078125,-0.5743677020072937,-0.03347507119178772,-0.020145755261182785
1728303252639643000,8.043642822265625,-0.566015362739563,-0.02649131417274475,-0.026850808411836624
1728303252649703000,8.053702880859374,-0.5595865249633789,-0.01348789595067501,-0.02671658620238304
1728303252659763200,8.06376318359375,-0.5672769546508789,-0.022521113976836205,-0.026390407234430313
1728303252669823000,8.073822998046875,-0.5598829388618469,-0.031730588525533676,-0.028878865763545036
1728303252679883000,8.083883056640625,-0.5584635138511658,-0.010626859962940216,-0.03143615648150444
1728303252689943000,8.093943115234374,-0.5582161545753479,-0.026564281433820724,-0.030683014541864395
1728303252700002800,8.1040029296875,-0.5611619353294373,-0.015080047771334648,-0.034538038074970245
1728303252710063000,8.11406298828125,-0.5544944405555725,-0.02261066809296608,-0.03949763998389244
1728303252720123100,8.124123046875,-0.5548756122589111,-0.01257253997027874,-0.03634801506996155
1728303252730183000,8.134182861328124,-0.5533559918403625,-0.010209782049059868,-0.040185097604990005
1728303252740243000,8.144242919921876,-0.5520568490028381,-0.012987502850592136,-0.045199714601039886
1728303252750303000,8.154302978515625,-0.5468900203704834,0.004045808222144842,-0.04385135695338249
1728303252760363000,8.164363037109375,-0.5485113859176636,0.0037851843517273664,-0.04638603702187538
1728303252770423000,8.174423095703125,-0.5515633821487427,-0.008368683978915215,-0.0486057810485363
1728303252780483000,8.184483154296874,-0.5418707728385925,0.016835514456033707,-0.05196690186858177
1728303252790543000,8.194543212890625,-0.537952184677124,-0.004745676647871733,-0.047537531703710556
1728303252800603000,8.204602783203125,-0.5424620509147644,0.014468610286712646,-0.059955839067697525
1728303252810663000,8.214662841796875,-0.5345891714096069,0.011410502716898918,-0.051472604274749756
1728303252820723000,8.224722900390624,-0.5285006761550903,0.005308301653712988,-0.04847239702939987
1728303252830783000,8.234782958984376,-0.5267373919487,0.0078883720561862,-0.047166913747787476
1728303252840843000,8.244843017578125,-0.5322706699371338,-0.00027059903368353844,-0.04928432032465935
1728303252850903000,8.254903076171875,-0.5228558778762817,0.011053428053855896,-0.045539647340774536
1728303252860963000,8.264963134765624,-0.5251407027244568,0.0011490057222545147,-0.03922334685921669
1728303252871022800,8.27502294921875,-0.5242887735366821,0.008206116035580635,-0.04090593382716179
1728303252881083100,8.285083251953125,-0.5202431082725525,0.0163833387196064,-0.03621813654899597
1728303252891143200,8.29514306640625,-0.5185818672180176,0.015678666532039642,-0.03325377404689789
1728303252901203000,8.305202880859374,-0.5174105763435364,0.009782148525118828,-0.030594777315855026
1728303252911263000,8.315262939453126,-0.5133151412010193,0.020763427019119263,-0.025495357811450958
1728303252921323000,8.325322998046875,-0.5086389780044556,0.0007172515615820885,-0.023081358522176743
1728303252931382800,8.3353828125,-0.5039587616920471,0.009224453940987587,-0.023896818980574608
1728303252941443000,8.345443115234374,-0.5009824633598328,0.008202822878956795,-0.017457090318202972
1728303252951503000,8.355503173828126,-0.5019105672836304,0.013976821675896645,-0.010245781391859055
1728303252961563100,8.365563232421875,-0.49388226866722107,0.025648629292845726,-0.012162349186837673
1728303252971623000,8.375622802734375,-0.4936907887458801,0.017597626894712448,-0.008011545985937119
1728303252981683000,8.385682861328124,-0.4915430247783661,0.011610687710344791,-0.006022686138749123
1728303252991743000,8.395742919921876,-0.4880947768688202,0.025332625955343246,0.000004846486262977123
1728303253001803000,8.405802978515625,-0.4831307828426361,0.009634551592171192,-0.005909985397011042
1728303253011863000,8.415863037109375,-0.4849947392940521,0.012377873063087463,-0.00017220492009073496
1728303253021923000,8.425923095703125,-0.47849714756011963,0.022934995591640472,0.002844559494405985
1728303253031982800,8.43598291015625,-0.4777650535106659,0.013825122267007828,0.002303138840943575
1728303253042043000,8.44604296875,-0.4751132130622864,0.019170226529240608,0.0012667225673794746
1728303253052103200,8.456103271484375,-0.46944814920425415,0.02597060799598694,-0.00015380745753645897
1728303253062163200,8.4661630859375,-0.46628251671791077,0.023684633895754814,0.0015059132128953934
1728303253072223000,8.476222900390624,-0.4583446979522705,0.0302226934581995,-0.002458201954141259
1728303253082283000,8.486282958984376,-0.4636976420879364,0.02417886070907116,0.0009778446983546019
1728303253092343000,8.496343017578125,-0.4548831284046173,0.027661476284265518,-0.0028134314343333244
1728303253102402800,8.50640283203125,-0.44959181547164917,0.042388029396533966,-0.007130465470254421
1728303253112464000,8.5164638671875,-0.4467025697231293,0.027518535032868385,-0.004166366998106241
1728303253122524000,8.52652392578125,-0.44300320744514465,0.03536374121904373,-0.009662197902798653
1728303253132584200,8.536584228515625,-0.44264766573905945,0.04101976752281189,-0.00666694063693285
1728303253142644000,8.54664404296875,-0.43653562664985657,0.03392046317458153,-0.010171939618885517
1728303253152704000,8.5567041015625,-0.4327438175678253,0.03379449620842934,-0.010779406875371933
1728303253162764000,8.566763916015624,-0.42909932136535645,0.037575218826532364,-0.012401961721479893
1728303253172823800,8.57682373046875,-0.4248025715351105,0.020659351721405983,-0.006960590369999409
1728303253182884000,8.586884033203125,-0.42436233162879944,0.034563615918159485,-0.007321025710552931
1728303253192944000,8.596944091796875,-0.4140694737434387,0.026213275268673897,-0.008557531051337719
1728303253203004200,8.607004150390624,-0.4130234718322754,0.016776476055383682,-0.0073332637548446655
1728303253213064000,8.61706396484375,-0.4080936908721924,0.019873466342687607,-0.009042480029165745
1728303253223124000,8.6271240234375,-0.40006375312805176,0.01995864510536194,-0.003685592208057642
1728303253233184000,8.63718408203125,-0.3928748071193695,0.014989187940955162,-0.00675568450242281
1728303253243244000,8.647244140625,-0.3957608640193939,0.0033277799375355244,-0.008675497025251389
1728303253253304000,8.657303955078126,-0.3920332193374634,-0.002351144328713417,-0.001922252937220037
1728303253263364000,8.667364013671875,-0.38787567615509033,0.004490278661251068,-0.00868466030806303
1728303253273424000,8.677423828125,-0.3916959762573242,-0.014192062430083752,-0.006863059010356665
1728303253283484000,8.68748388671875,-0.38348665833473206,0.00417867349460721,-0.002639805432409048
1728303253293544000,8.6975439453125,-0.3725370466709137,-0.024766160175204277,-0.004057139623910189
1728303253303604000,8.70760400390625,-0.37215161323547363,-0.020140808075666428,-0.012176391668617725
1728303253313664000,8.7176640625,-0.3613327741622925,-0.004986090119928122,-0.012048027478158474
1728303253323724000,8.72772412109375,-0.3669041693210602,-0.019927922636270523,-0.012055380269885063
1728303253333784000,8.7377841796875,-0.362098753452301,-0.02472720295190811,-0.014605356380343437
1728303253343843800,8.74784375,-0.3563615083694458,-0.011258618906140327,-0.01777365431189537
1728303253353904000,8.757904052734375,-0.3545076847076416,-0.025007454678416252,-0.01196263637393713
1728303253363964200,8.767964111328125,-0.3501725196838379,-0.02371436171233654,-0.0156756192445755
1728303253374024000,8.77802392578125,-0.3428134322166443,-0.011895518749952316,-0.017018385231494904
1728303253384084000,8.788083984375,-0.3401835858821869,-0.02173423208296299,-0.014685319736599922
1728303253394144000,8.79814404296875,-0.33111339807510376,-0.019042043015360832,-0.012138273566961288
1728303253404203800,8.808203857421875,-0.33060911297798157,0.0001635383814573288,-0.015501529909670353
1728303253414264000,8.81826416015625,-0.32307687401771545,-0.001789357978850603,-0.011233814060688019
1728303253424324000,8.828323974609376,-0.3169587254524231,-0.006936575286090374,-0.009297344833612442
1728303253434384100,8.838384033203125,-0.32048100233078003,0.009412303566932678,-0.007775348611176014
1728303253444444000,8.84844384765625,-0.3071547746658325,0.016419459134340286,-0.004463515244424343
1728303253454504000,8.85850390625,-0.3015109896659851,-0.0009486135095357895,-0.004014772363007069
1728303253464564000,8.86856396484375,-0.3004531264305115,-0.00036141276359558105,-0.004746147897094488
1728303253474624300,8.878624267578125,-0.2888356149196625,0.02798260934650898,-0.005903025157749653
1728303253484684300,8.888684326171875,-0.2854652404785156,0.0037248015869408846,0.0059104058891534805
1728303253494744000,8.898744140625,-0.28431767225265503,-0.008507097139954567,0.0010967424605041742
1728303253504804000,8.90880419921875,-0.27260318398475647,0.018778683617711067,-0.00513103511184454
1728303253514864000,8.918864013671875,-0.2719845175743103,-0.007037999574095011,-0.0035680257715284824
1728303253524924200,8.928924072265625,-0.2666199505329132,-0.004556018393486738,0.0005949065089225769
1728303253534984200,8.938984130859374,-0.260210782289505,0.013123376294970512,-0.0027044836897403
1728303253545044200,8.949044189453126,-0.2571248710155487,0.03633525222539902,-0.005333133041858673
1728303253555104000,8.95910400390625,-0.2520845830440521,0.01913016475737095,-0.00123106618411839
1728303253565164000,8.9691640625,-0.24488627910614014,0.026919420808553696,-0.0016347408527508378
1728303253575224000,8.97922412109375,-0.24005743861198425,0.05135871842503548,-0.008048963733017445
1728303253585284400,8.989284423828124,-0.2374492734670639,0.04501540586352348,-0.006727820262312889
1728303253595344100,8.99934423828125,-0.23140949010849,0.020830441266298294,-0.0038793033454567194
1728303253605404200,9.009404052734375,-0.22192011773586273,0.04006870836019516,-0.007293642498552799
1728303253615464200,9.019464111328125,-0.2194335162639618,0.03376740217208862,-0.01226629689335823
1728303253625524000,9.02952392578125,-0.21396079659461975,0.027135413140058517,-0.009271807037293911
1728303253635584000,9.039583984375,-0.20890451967716217,0.012603077106177807,-0.0060381959192454815
1728303253645644300,9.049644287109375,-0.20864778757095337,0.007819860242307186,-0.00105627765879035
1728303253655704000,9.0597041015625,-0.20582032203674316,0.01598883979022503,-0.006576211657375097
1728303253665764000,9.06976416015625,-0.19641946256160736,0.007388077676296234,-0.009260266087949276
1728303253675824000,9.07982421875,-0.19602957367897034,-0.01213795319199562,-0.000991950393654406
1728303253685884200,9.08988427734375,-0.19175474345684052,0.001539747230708599,-0.00407897774130106
1728303253695944200,9.099944091796875,-0.18351465463638306,0.022416001185774803,-0.009839129634201527
1728303253706004200,9.110004150390624,-0.1834360957145691,0.010732056573033333,-0.006233040243387222
1728303253716064300,9.120064208984376,-0.17794598639011383,-0.0037432899698615074,-0.003663355950266123
1728303253726124000,9.1301240234375,-0.1683819442987442,-0.0018176534213125706,-0.004537089727818966
1728303253736184000,9.14018408203125,-0.16861364245414734,0.00024363351985812187,-0.004736560396850109
1728303253746244000,9.150244140625,-0.16974632441997528,-0.008467640727758408,-0.005582671612501144
1728303253756304100,9.16030419921875,-0.15707792341709137,-0.01088152825832367,-0.004644972272217274
1728303253766364200,9.1703642578125,-0.14971455931663513,-0.03448699042201042,0.0014648518990725279
1728303253776424200,9.180424072265625,-0.16002631187438965,-0.01847047172486782,-0.006489744409918785
1728303253786484200,9.190484130859375,-0.15076559782028198,-0.004036588594317436,-0.01160795334726572
1728303253796544000,9.2005439453125,-0.14072681963443756,-0.017557723447680473,-0.00017793162260204554
1728303253806604000,9.21060400390625,-0.1462242603302002,-0.026350948959589005,-0.002249423647299409
1728303253816664300,9.220664306640625,-0.1440463364124298,-0.0013822177425026894,-0.004760251846164465
1728303253826724000,9.23072412109375,-0.13585084676742554,0.009481686167418957,-0.011141232214868069
1728303253836784000,9.2407841796875,-0.13803571462631226,0.00452288007363677,-0.012425142340362072
1728303253846844200,9.25084423828125,-0.13545352220535278,-0.011110996827483177,-0.010977944359183311
1728303253856904000,9.260904052734375,-0.1302552968263626,-0.01365005411207676,-0.008675375953316689
1728303253866964200,9.270964111328125,-0.1327434927225113,0.00030677439644932747,-0.015695201233029366
1728303253877024300,9.281024169921874,-0.13231098651885986,0.0045587774366140366,-0.017563143745064735
1728303253887084300,9.291084228515626,-0.12544460594654083,-0.015203995630145073,-0.01542285643517971
1728303253897144000,9.30114404296875,-0.12465205043554306,-0.011792220175266266,-0.01662101410329342
1728303253907204000,9.3112041015625,-0.12096553295850754,0.009556660428643227,-0.0263051874935627
1728303253917264100,9.32126416015625,-0.11500511318445206,0.017011115327477455,-0.026154983788728714
1728303253927324200,9.33132421875,-0.11323777586221695,-0.0006644539535045624,-0.0228345338255167
1728303253937384200,9.34138427734375,-0.11368731409311295,-0.004428831860423088,-0.02607719786465168
1728303253947444200,9.3514443359375,-0.10977058112621307,0.02518092282116413,-0.035628754645586014
1728303253957504000,9.36150390625,-0.10777560621500015,0.031997550278902054,-0.03535604849457741
1728303253967564000,9.37156396484375,-0.11069811135530472,0.0011833072640001774,-0.03253629803657532
1728303253977624000,9.3816240234375,-0.10647567361593246,0.003963913768529892,-0.03165692463517189
1728303253987684000,9.39168408203125,-0.10411624610424042,0.028955480083823204,-0.03923063352704048
1728303253997744000,9.401744140625,-0.10366777330636978,0.008899212814867496,-0.040104418992996216
1728303254007804200,9.41180419921875,-0.09554662555456161,-0.004818199668079615,-0.03980462998151779
1728303254017864200,9.4218642578125,-0.09595595300197601,0.008120502345263958,-0.04370349645614624
1728303254027924000,9.431924072265625,-0.09692198038101196,0.02370319329202175,-0.04541715979576111
1728303254037984300,9.441984375,-0.09173973649740219,-0.01680508442223072,-0.038834623992443085
1728303254048044300,9.452044189453124,-0.09023972600698471,-0.009175199083983898,-0.03819861263036728
1728303254058104000,9.46210400390625,-0.083924300968647,0.019564568996429443,-0.04137123376131058
1728303254068164000,9.4721640625,-0.08786949515342712,0.013410858809947968,-0.036688633263111115
1728303254078224100,9.48222412109375,-0.08484680950641632,-0.008096031844615936,-0.03465930372476578
1728303254088284000,9.492283935546874,-0.0838908925652504,-0.0032010572031140327,-0.03319897502660751
1728303254098344200,9.50234423828125,-0.08213187754154205,0.004588955081999302,-0.035661596804857254
1728303254108404200,9.512404296875,-0.07640639692544937,-0.01565617136657238,-0.02021479234099388
1728303254118464300,9.52246435546875,-0.07021748274564743,0.0010261358693242073,-0.01659555733203888
1728303254128524000,9.53252392578125,-0.07232654094696045,0.004453360568732023,-0.024920519441366196
1728303254138584000,9.542583984375,-0.07181068509817123,-0.022298891097307205,-0.02241581678390503
1728303254148644000,9.55264404296875,-0.06410819292068481,-0.023067127913236618,-0.009458883665502071
1728303254158704000,9.5627041015625,-0.06585043668746948,-0.02440323680639267,-0.010148642584681511
1728303254168764200,9.57276416015625,-0.0657142773270607,-0.022443672642111778,-0.009597809985280037
1728303254178824200,9.58282421875,-0.05778444930911064,-0.029648855328559875,-0.011985599994659424
1728303254188884000,9.592884033203125,-0.061225149780511856,-0.031347066164016724,0.0002309732954017818
1728303254198944000,9.602944091796875,-0.06168161705136299,-0.01020103506743908,-0.004741414450109005
1728303254209004300,9.61300439453125,-0.06802503764629364,-0.039875827729701996,0.012526956386864185
1728303254219064300,9.623064208984376,-0.05785708874464035,-0.028631962835788727,0.004168625921010971
1728303254229124000,9.6331240234375,-0.0532320961356163,-0.017389480024576187,-0.0018396142404526472
1728303254239184100,9.64318408203125,-0.059204231947660446,-0.027363283559679985,0.009697997942566872
1728303254249244200,9.653244140625,-0.05543655902147293,-0.02886815369129181,0.0075390939600765705
1728303254259304000,9.663303955078124,-0.04982607811689377,-0.028063081204891205,0.001814096700400114
1728303254269364200,9.6733642578125,-0.052665986120700836,-0.02982473187148571,0.008904118090867996
1728303254279424300,9.68342431640625,-0.04554709047079086,-0.01893613114953041,0.001498931902460754
1728303254289484000,9.693484130859375,-0.05162828415632248,-0.034397538751363754,0.003743828274309635
1728303254299544000,9.7035439453125,-0.04939176142215729,-0.03479967638850212,-0.00501264538615942
1728303254309604000,9.71360400390625,-0.04304569214582443,-0.004355817101895809,-0.0043142326176166534
1728303254319664000,9.7236640625,-0.0485571026802063,-0.014381020329892635,0.0027687104884535074
1728303254329724200,9.73372412109375,-0.045785486698150635,-0.016039539128541946,-0.009784872643649578
1728303254339784200,9.7437841796875,-0.0484614335000515,-0.018863821402192116,-0.0059549808502197266
1728303254349844200,9.75384423828125,-0.052198607474565506,-0.0027373298071324825,-0.009086229838430882
1728303254359904000,9.763904052734375,-0.05229448154568672,0.010235194116830826,-0.012221835553646088
1728303254369964000,9.773964111328125,-0.04559200257062912,-0.0015505403280258179,-0.007210978306829929
1728303254380024300,9.7840244140625,-0.04739043489098549,0.01630302518606186,-0.010896260850131512
1728303254390084000,9.794083984375,-0.052539896219968796,-0.0013264575973153114,-0.009333055466413498
1728303254400144100,9.80414404296875,-0.049587517976760864,0.008440951816737652,-0.011247868649661541
1728303254410204200,9.8142041015625,-0.05318443477153778,0.007831045426428318,-0.003424094058573246
1728303254420264200,9.82426416015625,-0.050976939499378204,0.023583909496665,-0.005845440085977316
1728303254430324000,9.834323974609376,-0.04426601529121399,0.030855868011713028,-0.01812860742211342
1728303254440384300,9.84438427734375,-0.05028555914759636,0.014582622796297073,-0.0017403127858415246
1728303254450444300,9.8544443359375,-0.04809657484292984,0.026966163888573647,-0.0016704293666407466
1728303254460504000,9.864504150390625,-0.04978901520371437,0.03506297245621681,-0.008576272055506706
1728303254470564000,9.874564208984374,-0.04978559911251068,0.017445016652345657,-0.00791629496961832
1728303254480627700,9.884627685546874,-0.04995044320821762,0.020627494901418686,0.0025328837800771
1728303254490687700,9.894687744140626,-0.04010998457670212,0.013179232366383076,-0.00018748280126601458
1728303254500747800,9.904747802734375,-0.04036778211593628,0.02755737118422985,-0.000004257308319211006
1728303254510807800,9.914807861328125,-0.044679515063762665,0.0023286486975848675,0.004940114915370941
1728303254520867800,9.924867919921875,-0.042053110897541046,0.025752749294042587,-0.003169476520270109
1728303254530927600,9.934927734375,-0.042640142142772675,0.025725610554218292,0.0027318987995386124
1728303254540987600,9.944987548828125,-0.044091831892728806,0.027553338557481766,0.0007273373194038868
1728303254551047700,9.955047607421875,-0.042995039373636246,0.017637141048908234,0.006209308747202158
1728303254561107700,9.965107666015625,-0.03133252635598183,0.051996711641550064,-0.01380221638828516
1728303254571167700,9.975167724609374,-0.05055364966392517,0.03335713967680931,-0.00011562986765056849
1728303254581227800,9.985227783203126,-0.04291597008705139,0.028987158089876175,0.0012271360028535128
1728303254591287800,9.995287841796875,-0.0432465560734272,0.02642197161912918,0.005025181453675032
1728303254601347600,10.00534765625,-0.04722665250301361,0.01372002437710762,0.0064912517555058
1728303254611408000,10.015407958984374,-0.04317513108253479,0.015025995671749115,0.0080471932888031
1728303254621468000,10.025468017578126,-0.04341188818216324,-0.0015252851881086826,0.003217817284166813
1728303254631527700,10.035527587890625,-0.0473567433655262,-0.002145686186850071,0.0009395746747031808
1728303254641587700,10.045587646484375,-0.04974932596087456,0.0014628968201577663,-0.0015326377470046282
1728303254651647700,10.055647705078124,-0.04121492803096771,0.004449123982340097,-0.0031846044585108757
1728303254661707500,10.06570751953125,-0.04420699179172516,-0.013638800010085106,0.001476992852985859
1728303254671767800,10.075767822265625,-0.04265858232975006,-0.0008421819657087326,-0.010260358452796936
1728303254681827800,10.085827880859375,-0.05054580047726631,-0.019257143139839172,-0.0022527652326971292
1728303254691887900,10.095887939453124,-0.04473757743835449,-0.014134480617940426,-0.003272807225584984
1728303254701947600,10.10594775390625,-0.04164271801710129,-0.016868747770786285,-0.0028003626503050327
1728303254712007700,10.116007568359375,-0.046331144869327545,-0.028503291308879852,-0.002925974316895008
1728303254722067700,10.126067626953125,-0.04421553015708923,-0.025630004703998566,-0.004255690611898899
1728303254732127700,10.136127685546874,-0.0368262380361557,-0.037986159324645996,-0.002785801189020276
1728303254742187800,10.146187744140626,-0.04074827581644058,-0.018408726900815964,-0.005096093285828829
1728303254752247800,10.156247802734375,-0.04316987842321396,-0.03636251762509346,-0.0009641323704272509
1728303254762307600,10.1663076171875,-0.042913421988487244,-0.02384672313928604,-0.002647516317665577
1728303254772367600,10.17636767578125,-0.03495238348841667,-0.0370921790599823,-0.000998160452581942
1728303254782428000,10.186427978515624,-0.03794870525598526,-0.02530262991786003,-0.003458388615399599
1728303254792488000,10.196488037109376,-0.03729008138179779,-0.03612525388598442,-0.0007109408034011722
1728303254802547700,10.206547607421875,-0.03873005509376526,-0.035964932292699814,0.0058638714253902435
1728303254812607700,10.216607666015625,-0.041891347616910934,-0.023980988189578056,0.00012131175026297569
1728303254822667800,10.226667724609374,-0.037926968187093735,-0.023595629259943962,0.00843383651226759
1728303254832727600,10.2367275390625,-0.0359002910554409,-0.03369685634970665,0.01390866283327341
1728303254842787800,10.246787841796875,-0.03463609144091606,-0.02365674078464508,0.010043617337942123
1728303254852847900,10.256847900390625,-0.038615141063928604,-0.02462472766637802,0.009981169365346432
1728303254862907600,10.26690771484375,-0.04153929278254509,-0.030837085098028183,0.01499590091407299
1728303254872967700,10.2769677734375,-0.0385122187435627,-0.013835981488227844,0.010012311860918999
1728303254883027700,10.28702783203125,-0.0349571667611599,-0.011256709694862366,0.006421305239200592
1728303254893087700,10.297087646484375,-0.04028362035751343,-0.016140077263116837,0.014436036348342896
1728303254903147800,10.307147705078124,-0.03999679535627365,-0.013945367187261581,0.010622922331094742
1728303254913207800,10.317207763671876,-0.042439162731170654,-0.0033659045584499836,0.010006366297602654
1728303254923267800,10.327267822265625,-0.03905721753835678,0.0012261844240128994,0.01145832147449255
1728303254933327600,10.33732763671875,-0.03912220150232315,0.0014528194442391396,0.00926307775080204
1728303254943387600,10.3473876953125,-0.039337918162345886,0.002906106412410736,0.007735223043709993
1728303254953448000,10.357447998046876,-0.04378308355808258,0.013128621503710747,0.010302355512976646
1728303254963507700,10.3675078125,-0.041589971631765366,0.01694120280444622,0.004481218289583921
1728303254973567700,10.377567626953125,-0.03500208258628845,0.024635452777147293,-0.0009732721373438835
1728303254983627800,10.387627685546875,-0.041100189089775085,0.011059189215302467,-0.0012795357033610344
1728303254993687800,10.397687744140624,-0.036589354276657104,0.021802004426717758,0.002417800948023796
1728303255003747600,10.40774755859375,-0.038401901721954346,0.018300212919712067,-0.007722450885921717
1728303255013807900,10.417807861328125,-0.04331830516457558,0.020907100290060043,-0.006100898142904043
1728303255023868000,10.427867919921875,-0.039997074753046036,0.010604129172861576,-0.008254329673945904
1728303255033927700,10.437927734375,-0.03946448117494583,0.021429626271128654,-0.008757494390010834
1728303255043987700,10.44798779296875,-0.03447718173265457,0.01844102516770363,-0.010099461302161217
1728303255054047700,10.4580478515625,-0.03947807103395462,0.026859935373067856,-0.00426303967833519
1728303255064107800,10.468107666015625,-0.03687269985675812,0.018529832363128662,-0.005095810163766146
1728303255074167800,10.478167724609374,-0.0366322286427021,0.03413084149360657,-0.007304334547370672
1728303255084227800,10.488227783203126,-0.04264697805047035,0.011828998103737831,0.001587693695910275
1728303255094288000,10.498287841796875,-0.03390885889530182,0.031300898641347885,-0.002434350550174713
1728303255104347600,10.50834765625,-0.03801998496055603,0.0044953832402825356,0.00551518565043807
1728303255114407700,10.51840771484375,-0.04050714522600174,0.009579903446137905,0.002934488467872143
1728303255124468000,10.528468017578126,-0.03468067944049835,0.025929316878318787,0.003976050764322281
1728303255134527700,10.53852783203125,-0.03001447021961212,0.023508265614509583,0.0045061735436320305
1728303255144587800,10.548587890625,-0.031175609678030014,0.008694964461028576,0.0071256584487855434
1728303255154647800,10.558647705078124,-0.030408358201384544,0.0043014055117964745,0.0021459178533405066
1728303255164707600,10.56870751953125,-0.02911592833697796,0.0081259710714221,0.004051409661769867
1728303255174767600,10.578767578125,-0.032257117331027985,0.005375866778194904,0.005628962069749832
1728303255184828000,10.588827880859375,-0.02188357338309288,0.02349787950515747,-0.0019740965217351913
1728303255194887700,10.5988876953125,-0.026512598618865013,-0.012543059885501862,0.002757268026471138
1728303255204947700,10.60894775390625,-0.028745925053954124,0.012941528111696243,-0.000036654178984463215
1728303255215007700,10.6190078125,-0.02684938721358776,0.009164184331893921,-0.0029084868729114532
1728303255225067800,10.62906787109375,-0.024604342877864838,-0.0021262867376208305,-0.004344196990132332
1728303255235127800,10.6391279296875,-0.029781680554151535,-0.011071971617639065,-0.0042314594611525536
1728303255245187800,10.649187744140624,-0.025194650515913963,0.013532441109418869,-0.017988817766308784
1728303255255248000,10.659247802734376,-0.024818742647767067,-0.006526950281113386,-0.005910634994506836
1728303255265307600,10.6693076171875,-0.030345868319272995,-0.010252179577946663,-0.012635382823646069
1728303255275367700,10.67936767578125,-0.026045653969049454,-0.0006411848589777946,-0.01845512166619301
1728303255285427700,10.689427734375,-0.028106939047574997,-0.011187834665179253,-0.00886001717299223
1728303255295487700,10.69948779296875,-0.0241506639868021,-0.00006767967715859413,-0.01443063747137785
1728303255305547800,10.7095478515625,-0.02787988819181919,-0.003221927210688591,-0.009633218869566917
1728303255315607800,10.71960791015625,-0.028889451175928116,-0.002989571075886488,-0.01647435687482357
1728303255325667800,10.729667724609374,-0.029917694628238678,-0.002080367412418127,-0.006319189909845591
1728303255335727600,10.7397275390625,-0.032794177532196045,0.00022486457601189613,-0.014145155437290668
1728303255345787600,10.74978759765625,-0.0278841070830822,-0.004609038587659597,-0.006076576188206673
1728303255355848000,10.759847900390625,-0.030878184363245964,-0.01346577424556017,-0.0033531407825648785
1728303255365907700,10.76990771484375,-0.021748866885900497,0.005496199242770672,-0.015668129548430443
1728303255375967700,10.7799677734375,-0.02795630879700184,-0.010892573744058609,0.0032644348684698343
1728303255386027800,10.79002783203125,-0.024493666365742683,-0.007650975603610277,-0.008393020369112492
1728303255396087600,10.800087646484375,-0.029611602425575256,-0.009565325453877449,-0.005739131942391396
1728303255406147800,10.81014794921875,-0.025382500141859055,-0.017538830637931824,-0.009030533023178577
1728303255416208000,10.820207763671876,-0.03095586597919464,-0.002722162753343582,-0.0015690972795709968
1728303255426268000,10.830267822265625,-0.030741747468709946,-0.0034891534596681595,0.0005579695571213961
1728303255436327700,10.84032763671875,-0.024819044396281242,-0.020744221284985542,0.0005687426310032606
1728303255446387700,10.8503876953125,-0.028918981552124023,-0.013466868549585342,0.0012710181763395667
1728303255456447700,10.86044775390625,-0.023245779797434807,0.0035188442561775446,-0.0034556128084659576
1728303255466507800,10.8705078125,-0.024986421689391136,0.0033047262113541365,-0.0005567620974034071
1728303255476563500,10.8805634765625,-0.03206200897693634,-0.014853589236736298,-0.007231296040117741
1728303255486623200,10.890623291015626,-0.025219282135367393,-0.0068039181642234325,-0.0009720688685774803
1728303255496683300,10.900683349609375,-0.029439931735396385,-0.011660432443022728,0.007326152641326189
1728303255506743600,10.91074365234375,-0.028417544439435005,0.007195546757429838,-0.0023341975174844265
1728303255516803300,10.92080322265625,-0.025389956310391426,-0.0044433060102164745,0.008078510873019695
1728303255526863400,10.93086328125,-0.022856490686535835,-0.006489146035164595,0.001976143568754196
1728303255536923400,10.94092333984375,-0.02748413011431694,0.004932690411806107,0.012797044590115547
1728303255546983400,10.9509833984375,-0.02615041844546795,0.00498275738209486,0.0014125639572739601
1728303255557043200,10.961043212890624,-0.027376994490623474,-0.01828855276107788,0.01930677331984043
1728303255567103500,10.971103515625,-0.023390240967273712,0.006077773869037628,0.0072019062936306
1728303255577163500,10.98116357421875,-0.024669412523508072,-0.004023818299174309,0.013552889227867126
1728303255587223300,10.991223388671875,-0.028894783928990364,-0.012786949053406715,0.027224494144320488
1728303255597283300,11.001283447265624,-0.019145164638757706,0.020999019965529442,0.00908629596233368
1728303255607343400,11.01134326171875,-0.027561556547880173,-0.007203324232250452,0.01950964145362377
1728303255617403400,11.0214033203125,-0.023982660844922066,0.005677924491465092,0.015266908332705498
1728303255627463400,11.03146337890625,-0.022524047642946243,-0.003980561625212431,0.019360454753041267
1728303255637523500,11.0415234375,-0.028425849974155426,-0.0037538157775998116,0.0163161251693964
1728303255647583500,11.05158349609375,-0.026753917336463928,0.0009309509769082069,0.0230504609644413
1728303255657643300,11.061643310546875,-0.02302750013768673,-0.0049743265844881535,0.014605026692152023
1728303255667703300,11.071703369140625,-0.02596869505941868,-0.000014988239854574203,0.018539579585194588
1728303255677763600,11.081763671875,-0.025099650025367737,-0.0090830959379673,0.01694447547197342
1728303255687822300,11.091822265625,-0.023780319839715958,0.021588262170553207,0.018031045794487
1728303255697883400,11.10188330078125,-0.026765216141939163,0.00842654425650835,0.015611367300152779
1728303255707943400,11.111943359375,-0.029670991003513336,0.022038493305444717,0.019207701086997986
1728303255718003200,11.122003173828125,-0.026559002697467804,0.023196198046207428,0.018941005691885948
1728303255728062500,11.1320625,-0.027393372729420662,0.02970949187874794,0.015009913593530655
1728303255738122500,11.14212255859375,-0.026019252836704254,0.02779443748295307,0.009485529735684395
1728303255748182300,11.152182373046875,-0.025235751643776894,0.014779835939407349,0.006206645630300045
1728303255758242300,11.1622421875,-0.025358572602272034,0.0307513028383255,0.006257451605051756
1728303255768302300,11.17230224609375,-0.02630239725112915,0.010592239908874035,0.004575931467115879
1728303255778362400,11.1823623046875,-0.030421221628785133,0.015748050063848495,-0.0009199044434353709
1728303255788422400,11.19242236328125,-0.025058146566152573,0.008609447628259659,-0.0033886549063026905
1728303255798482400,11.202482421875,-0.028422057628631592,0.008673124015331268,-0.006737236399203539
1728303255808542500,11.21254248046875,-0.02589232102036476,0.010834544897079468,-0.009030219167470932
1728303255818602200,11.222602294921876,-0.02337505854666233,0.015571638941764832,-0.012034807354211807
1728303255828662300,11.232662353515625,-0.021879427134990692,0.019329626113176346,-0.012069961056113243
1728303255838722600,11.24272265625,-0.024981295689940453,0.008508373983204365,-0.009956629015505314
1728303255848782300,11.2527822265625,-0.030039437115192413,0.015256025828421116,-0.014429408125579357
1728303255858842400,11.26284228515625,-0.023321738466620445,0.029710279777646065,-0.019289575517177582
1728303255868902400,11.27290234375,-0.02851516753435135,0.01613454893231392,-0.009700330905616283
1728303255878962200,11.282962158203125,-0.029779860749840736,-0.00349757494404912,-0.01151324063539505
1728303255889022500,11.2930224609375,-0.024841293692588806,0.014681695029139519,-0.018568219617009163
1728303255899082500,11.30308251953125,-0.0260927714407444,0.0035463012754917145,-0.00439110305160284
1728303255909142500,11.313142578125,-0.028112243860960007,0.003172127064317465,-0.011168581433594227
1728303255919202300,11.323202392578125,-0.02656901627779007,0.006604665424674749,-0.005480702500790358
1728303255929262300,11.333262451171874,-0.026703504845499992,-0.010131437331438065,-0.004330749623477459
1728303255939322400,11.343322265625,-0.024888863787055016,-0.003816004376858473,0.008638753555715084
1728303255949382400,11.35338232421875,-0.029145395383238792,-0.01344279944896698,0.010546375997364521
1728303255959442400,11.3634423828125,-0.03523756191134453,-0.008578382432460785,0.01843971200287342
1728303255969502500,11.37350244140625,-0.03132244944572449,-0.026168562471866608,0.015215955674648285
1728303255979562200,11.383562255859376,-0.026980144903063774,-0.002284602727741003,0.011238117702305317
1728303255989622300,11.393622314453125,-0.029923470690846443,-0.0440504252910614,0.02710709534585476
1728303255999682300,11.403682373046875,-0.026700375601649284,0.0003519980236887932,0.025687575340270996
1728303256009742300,11.413742431640625,-0.023997534066438675,-0.05729265511035919,0.032724179327487946
1728303256019802400,11.42380224609375,-0.03220988065004349,-0.012135665863752365,0.033322229981422424
1728303256029862400,11.4338623046875,-0.023358063772320747,-0.04016090929508209,0.03624318167567253
1728303256039922400,11.44392236328125,-0.02564760483801365,0.006266847252845764,0.030292224138975143
1728303256049982200,11.453982177734375,-0.02907775528728962,-0.046376656740903854,0.03742017224431038
1728303256060042500,11.46404248046875,-0.02489689737558365,-0.014320173300802708,0.03087376244366169
1728303256070102500,11.4741025390625,-0.020066721364855766,-0.023001279681921005,0.033185653388500214
1728303256080162300,11.484162353515625,-0.02906300313770771,-0.008456479758024216,0.020034272223711014
1728303256090222300,11.494222412109375,-0.025372659787535667,-0.021640457212924957,0.02494380995631218
1728303256100282400,11.504282470703124,-0.01979212649166584,-0.009351582266390324,0.01453300192952156
1728303256110342100,11.514342041015626,-0.024627627804875374,-0.006334487348794937,0.011871438473463058
1728303256120402400,11.52440234375,-0.023480484262108803,-0.004798626992851496,0.002960746642202139
1728303256130462500,11.53446240234375,-0.02586188167333603,0.002937322948127985,0.008009834215044975
1728303256140522500,11.5445224609375,-0.022342098876833916,-0.01195761002600193,-0.004955852869898081
1728303256150582300,11.554582275390626,-0.02741515263915062,0.01121482066810131,-0.0014596552355214953
1728303256160642300,11.564642333984375,-0.02580021321773529,-0.016140103340148926,-0.0003818739205598831
1728303256170702300,11.574702392578125,-0.0256689190864563,0.006178783252835274,-0.005774508696049452
1728303256180762400,11.584762451171875,-0.025916989892721176,-0.014862515032291412,-0.004404101986438036
1728303256190822400,11.594822509765624,-0.028610777109861374,0.01687224581837654,-0.009793807752430439
1728303256200882400,11.60488232421875,-0.01894119754433632,0.0022012521512806416,-0.0032275598496198654
1728303256210942200,11.614942138671875,-0.024690961465239525,0.0029810257256031036,-0.003532757982611656
1728303256221002200,11.625002197265625,-0.023985138162970543,-0.007082498166710138,-0.006230653263628483
1728303256231062500,11.6350625,-0.0225899089127779,0.020697999745607376,-0.00741975475102663
1728303256241122600,11.64512255859375,-0.024506917223334312,0.006102714687585831,0.004395598080009222
1728303256251182300,11.655182373046875,-0.024509312584996223,0.009958704933524132,-0.0016620280221104622
1728303256261242400,11.665242431640625,-0.02697855979204178,0.01729200966656208,0.0043710991740226746
1728303256271302400,11.675302490234374,-0.02494630217552185,0.01253746822476387,0.006489910185337067
1728303256281362200,11.685362060546876,-0.02536294236779213,0.009220181964337826,0.016386328265070915
1728303256291422500,11.69542236328125,-0.025215934962034225,0.004382549785077572,0.004230063408613205
1728303256301482500,11.705482421875,-0.024309173226356506,0.008310317061841488,0.017118439078330994
1728303256311542300,11.715542236328124,-0.021182354539632797,0.0006952742114663124,0.009119636379182339
1728303256321602300,11.725602294921876,-0.023719800636172295,0.018519829958677292,0.01927831955254078
1728303256331662300,11.735662353515625,-0.020165015012025833,0.009925808757543564,0.01204011496156454
1728303256341722400,11.745722412109375,-0.028398994356393814,0.002466362901031971,0.023445775732398033
1728303256351782400,11.755782470703124,-0.022880127653479576,0.0004106690175831318,0.010586703196167946
1728303256361842400,11.765842529296876,-0.01954461820423603,0.011207305826246738,0.01946050114929676
1728303256371902500,11.77590234375,-0.022699398919939995,-0.014843203127384186,0.005908474326133728
1728303256381962200,11.785962158203125,-0.024256225675344467,0.01690908893942833,0.016668304800987244
1728303256392022300,11.796022216796874,-0.019782647490501404,-0.012182217091321945,0.0038132271729409695
1728303256402082600,11.80608251953125,-0.019017593935132027,0.01575300097465515,0.0041889045387506485
1728303256412142300,11.816142333984375,-0.020377671346068382,-0.024666326120495796,-0.008267499506473541
1728303256422202400,11.826202392578125,-0.025545332580804825,0.013532891869544983,-0.0009984278585761786
1728303256432262400,11.836262451171875,-0.014036215841770172,-0.011841174215078354,-0.016540369018912315
1728303256442322400,11.846322509765624,-0.022791147232055664,0.01543207373470068,-0.009344994090497494
1728303256452382200,11.85638232421875,-0.020887786522507668,-0.004374920390546322,-0.0238493699580431
1728303256462442500,11.8664423828125,-0.019313571974635124,0.04020925611257553,-0.017607590183615685
1728303256472502500,11.87650244140625,-0.018432332202792168,-0.014442004263401031,-0.022803418338298798
1728303256482563000,11.88656298828125,-0.02186477929353714,0.03928761929273605,-0.020666643977165222
1728303256492623000,11.896623046875,-0.016477737575769424,-0.007080676034092903,-0.021764665842056274
1728303256502683000,11.906682861328125,-0.020496109500527382,0.019180728122591972,-0.014585398137569427
1728303256512743000,11.916742919921875,-0.025892207399010658,-0.02180292271077633,-0.020213456824421883
1728303256522802200,11.92680224609375,-0.019836710765957832,0.0211019329726696,-0.011379752308130264
1728303256532862000,11.936862060546876,-0.010848477482795715,-0.012745149433612823,-0.009425762109458447
1728303256542922000,11.946921875,-0.0197907742112875,-0.00723097613081336,-0.008656879886984825
1728303256552982000,11.95698193359375,-0.02281852252781391,-0.008815290406346321,-0.010384738445281982
1728303256563042000,11.9670419921875,-0.01498330757021904,-0.0033041187562048435,-0.0035661673173308372
1728303256573102000,11.97710205078125,-0.020604440942406654,-0.003391203936189413,-0.005669798236340284
1728303256583162000,11.987162109375,-0.015408342704176903,-0.00989450141787529,0.0006319317617453635
1728303256593222000,11.997221923828125,-0.015658678486943245,0.02873198688030243,-0.00023918820079416037
1728303256603282000,12.007281982421874,-0.018613621592521667,-0.02189728245139122,0.0033085281029343605
1728303256613341200,12.017341064453126,-0.023313302546739578,0.0035665312316268682,0.007929644547402859
1728303256623401000,12.02740087890625,-0.018570926040410995,-0.018977364525198936,0.008997456170618534
1728303256633461000,12.0374609375,-0.0164321418851614,0.006412946153432131,0.014484633691608906
1728303256643521000,12.04752099609375,-0.021794205531477928,-0.030066685751080513,0.010415108874440193
1728303256653580800,12.057580810546876,-0.02161896973848343,-0.009839445352554321,0.0065559218637645245
1728303256663641000,12.06764111328125,-0.017147738486528397,-0.02218501828610897,0.011558197438716888
1728303256673701000,12.077701171875,-0.01016146782785654,-0.0056513152085244656,0.010567501187324524
